Time,RFoot_accel.x,RFoot_accel.y,RFoot_accel.z,RFoot_gyro.x,RFoot_gyro.y,RFoot_gyro.z,LFoot_accel.x,LFoot_accel.y,LFoot_accel.z,LFoot_gyro.x,LFoot_gyro.y,LFoot_gyro.z,RShank_accel.x,RShank_accel.y,RShank_accel.z,RShank_gyro.x,RShank_gyro.y,RShank_gyro.z,LShank_accel.x,LShank_accel.y,LShank_accel.z,LShank_gyro.x,LShank_gyro.y,LShank_gyro.z,RThigh_accel.x,RThigh_accel.y,RThigh_accel.z,RThigh_gyro.x,RThigh_gyro.y,RThigh_gyro.z,LThigh_accel.x,LThigh_accel.y,LThigh_accel.z,LThigh_gyro.x,LThigh_gyro.y,LThigh_gyro.z,Pelvis_accel.x,Pelvis_accel.y,Pelvis_accel.z,Pelvis_gyro.x,Pelvis_gyro.y,Pelvis_gyro.z
4.55,4063.66,-1140.3,8978.04,22.8996,15.4695,-7.9684,3080.64,628.46,7235.92,-23.923,338.222,-160.234,-325.966,9901.3,-362.907,2.24744,16.7804,-58.9004,1943.38,-7324.38,2494.33,29.7342,22.2147,-265.823,-292.225,9201.69,-2162.4,-8.89061,-5.55437,-65.6109,-4301.58,-9449.14,-743.495,3.74809,175.441,-105.69,8655.02,585.551,487.169,-12.7428,23.2027,-9.7656
4.5505,4068.28,-1185.73,8990.96,22.7418,15.4261,-7.91643,3104.11,480.206,7270.2,-21.5575,338.358,-161.794,-352.376,9881.2,-378.13,2.31871,16.703,-58.8765,1864.19,-7355.26,2602.03,29.4728,22.6139,-266.43,-302.158,9186.94,-2165.89,-8.94213,-4.80618,-65.7301,-4340.07,-9404.46,-760.151,5.04336,177.419,-106.122,8672.1,605.241,478.436,-12.9199,23.6502,-9.53291
4.551,4072.9,-1231.15,9003.88,22.584,15.3828,-7.86446,3127.59,331.951,7304.47,-19.192,338.495,-163.353,-378.787,9861.1,-393.354,2.38999,16.6256,-58.8526,1785.01,-7386.14,2709.72,29.2114,23.013,-267.038,-312.09,9172.19,-2169.38,-8.99365,-4.05799,-65.8493,-4378.57,-9359.78,-776.807,6.33863,179.398,-106.555,8689.18,624.931,469.703,-13.0969,24.0977,-9.30021
4.5515,4055.13,-1267.1,9011.53,22.4403,15.2357,-7.87256,3177.7,263.637,7301.48,-16.9569,338.732,-164.891,-384.796,9859.51,-414.785,2.37071,16.5499,-58.7538,1710.59,-7389.73,2787.95,28.9581,22.7799,-267.544,-328.186,9161.22,-2161.47,-8.97613,-3.27231,-65.9557,-4421.54,-9302.28,-790.785,7.2775,180.861,-107.105,8698.56,629.592,439.531,-13.2064,24.6172,-8.89052
4.552,4030.98,-1300.33,9017.69,22.3006,15.0591,-7.89781,3235.42,218.164,7287.84,-14.759,338.997,-166.423,-384.977,9863.21,-437.989,2.32557,16.4747,-58.6336,1637.53,-7385.51,2857.76,28.7072,22.3662,-268.021,-346.042,9151.32,-2150.31,-8.93887,-2.47592,-66.0586,-4465.8,-9241.12,-803.998,8.11453,182.176,-107.69,8705.73,629.959,403.234,-13.2967,25.1573,-8.43026
4.5525,4006.82,-1333.57,9023.84,22.1609,14.8824,-7.92307,3293.14,172.69,7274.21,-12.5612,339.263,-167.955,-385.157,9866.9,-461.194,2.28043,16.3995,-58.5135,1564.47,-7381.29,2927.57,28.4562,21.9525,-268.498,-363.899,9141.42,-2139.14,-8.90162,-1.67953,-66.1615,-4510.05,-9179.95,-817.212,8.95156,183.492,-108.274,8712.9,630.326,366.937,-13.3869,25.6974,-7.97
4.553,3982.66,-1366.81,9029.99,22.0212,14.7058,-7.94833,3350.86,127.217,7260.57,-10.3634,339.528,-169.488,-385.338,9870.59,-484.399,2.23529,16.3242,-58.3933,1491.41,-7377.07,2997.38,28.2053,21.5387,-268.974,-381.756,9131.52,-2127.98,-8.86437,-0.883138,-66.2643,-4554.31,-9118.79,-830.425,9.78859,184.807,-108.859,8720.07,630.693,330.64,-13.4771,26.2375,-7.50974
4.5535,3958.5,-1400.04,9036.15,21.8815,14.5292,-7.97359,3408.58,81.743,7246.94,-8.16554,339.794,-171.02,-385.519,9874.29,-507.604,2.19015,16.249,-58.2731,1418.35,-7372.86,3067.19,27.9544,21.125,-269.451,-399.612,9121.62,-2116.81,-8.82712,-0.0867455,-66.3672,-4598.57,-9057.63,-843.638,10.6256,186.123,-109.443,8727.25,631.06,294.343,-13.5674,26.7775,-7.04948
4.554,3934.34,-1433.28,9042.3,21.7418,14.3525,-7.99885,3466.3,36.2695,7233.3,-5.96771,340.06,-172.552,-385.699,9877.98,-530.809,2.14501,16.1738,-58.153,1345.29,-7368.64,3137.0,27.7034,20.7113,-269.928,-417.469,9111.72,-2105.65,-8.78986,0.709647,-66.4701,-4642.82,-8996.46,-856.852,11.4627,187.438,-110.028,8734.42,631.427,258.046,-13.6576,27.3176,-6.58922
4.5545,3910.18,-1466.51,9048.46,21.6021,14.1759,-8.0241,3524.02,-9.20401,7219.67,-3.76988,340.325,-174.084,-385.88,9881.68,-554.013,2.09987,16.0985,-58.0328,1272.24,-7364.42,3206.81,27.4525,20.2976,-270.404,-435.326,9101.82,-2094.49,-8.75261,1.50604,-66.5729,-4687.08,-8935.3,-870.065,12.2997,188.754,-110.612,8741.59,631.795,221.749,-13.7478,27.8577,-6.12895
4.555,3886.02,-1499.75,9054.61,21.4624,13.9992,-8.04936,3581.74,-54.6775,7206.03,-1.57205,340.591,-175.616,-386.061,9885.37,-577.218,2.05473,16.0233,-57.9126,1199.18,-7360.2,3276.62,27.2016,19.8839,-270.881,-453.182,9091.92,-2083.32,-8.71536,2.30243,-66.6758,-4731.33,-8874.13,-883.278,13.1367,190.069,-111.197,8748.76,632.162,185.452,-13.8381,28.3978,-5.66869
4.5555,3861.86,-1532.99,9060.76,21.3227,13.8226,-8.07462,3639.46,-100.151,7192.4,0.625776,340.857,-177.148,-386.241,9889.07,-600.423,2.00959,15.9481,-57.7924,1126.12,-7355.99,3346.43,26.9507,19.4702,-271.358,-471.039,9082.01,-2072.16,-8.6781,3.09882,-66.7787,-4775.59,-8812.97,-896.491,13.9737,191.385,-111.781,8755.94,632.529,149.155,-13.9283,28.9379,-5.20843
4.556,3847.29,-1532.42,9052.92,21.2674,13.7305,-8.07787,3692.11,-33.7349,7171.2,2.89331,341.052,-178.271,-384.276,9897.19,-621.195,1.93277,15.8102,-57.6646,1075.4,-7376.89,3309.65,26.5118,19.5267,-271.856,-495.247,9077.73,-2050.63,-8.56223,3.83246,-66.8891,-4802.59,-8752.36,-920.572,14.4046,191.757,-112.417,8752.84,616.11,138.82,-13.9688,29.4975,-4.86317
4.5565,3833.92,-1527.62,9043.33,21.2227,13.6491,-8.07836,3744.13,46.6675,7149.05,5.16956,341.239,-179.343,-382.043,9905.86,-641.663,1.85198,15.6645,-57.5358,1027.48,-7400.94,3259.56,26.0495,19.6421,-272.357,-520.249,9074.14,-2027.8,-8.43653,4.55824,-67.0005,-4827.43,-8691.83,-946.011,14.7847,192.011,-113.06,8748.47,597.592,131.731,-14.003,30.0596,-4.53229
4.557,3820.54,-1522.82,9033.74,21.1779,13.5676,-8.07886,3796.15,127.07,7126.91,7.44581,341.426,-180.414,-379.81,9914.53,-662.131,1.77119,15.5187,-57.407,979.556,-7424.98,3209.46,25.5872,19.7574,-272.858,-545.25,9070.56,-2004.97,-8.31083,5.28403,-67.1118,-4852.28,-8631.29,-971.45,15.1648,192.265,-113.703,8744.09,579.075,124.642,-14.0373,30.6217,-4.20141
4.5575,3807.17,-1518.03,9024.15,21.1332,13.4861,-8.07935,3848.17,207.472,7104.76,9.72206,341.613,-181.486,-377.577,9923.2,-682.599,1.69041,15.373,-57.2782,931.633,-7449.03,3159.36,25.1249,19.8728,-273.359,-570.252,9066.97,-1982.14,-8.18513,6.00981,-67.2232,-4877.12,-8570.75,-996.889,15.5448,192.52,-114.346,8739.72,560.558,117.553,-14.0715,31.1838,-3.87052
4.558,3793.8,-1513.23,9014.56,21.0885,13.4047,-8.07984,3900.2,287.875,7082.61,11.9983,341.799,-182.558,-375.344,9931.88,-703.067,1.60962,15.2273,-57.1494,883.71,-7473.08,3109.27,24.6626,19.9881,-273.86,-595.254,9063.39,-1959.32,-8.05943,6.7356,-67.3346,-4901.97,-8510.21,-1022.33,15.9249,192.774,-114.989,8735.34,542.04,110.463,-14.1058,31.7459,-3.53964
4.5585,3780.43,-1508.44,9004.96,21.0438,13.3232,-8.08034,3952.22,368.277,7060.46,14.2746,341.986,-183.63,-373.111,9940.55,-723.535,1.52884,15.0815,-57.0206,835.786,-7497.12,3059.17,24.2003,20.1035,-274.361,-620.256,9059.8,-1936.49,-7.93373,7.46139,-67.4459,-4926.81,-8449.68,-1047.77,16.305,193.028,-115.632,8730.97,523.523,103.374,-14.1401,32.3079,-3.20876
4.559,3767.05,-1503.64,8995.37,20.9991,13.2417,-8.08083,4004.24,448.679,7038.32,16.5508,342.173,-184.702,-370.878,9949.22,-744.003,1.44805,14.9358,-56.8918,787.863,-7521.17,3009.07,23.7379,20.2188,-274.863,-645.257,9056.22,-1913.66,-7.80803,8.18717,-67.5573,-4951.65,-8389.14,-1073.21,16.6851,193.282,-116.274,8726.59,505.005,96.2849,-14.1743,32.87,-2.87787
4.5595,3753.68,-1498.84,8985.78,20.9543,13.1603,-8.08133,4056.26,529.082,7016.17,18.8271,342.36,-185.774,-368.645,9957.89,-764.47,1.36726,14.7901,-56.763,739.94,-7545.21,2958.97,23.2756,20.3342,-275.364,-670.259,9052.63,-1890.83,-7.68233,8.91296,-67.6686,-4976.5,-8328.6,-1098.65,17.0651,193.537,-116.917,8722.22,486.488,89.1956,-14.2086,33.4321,-2.54699
4.56,3740.31,-1494.05,8976.19,20.9096,13.0788,-8.08182,4108.28,609.484,6994.02,21.1033,342.547,-186.846,-366.412,9966.57,-784.938,1.28648,14.6443,-56.6342,692.017,-7569.26,2908.88,22.8133,20.4495,-275.865,-695.261,9049.05,-1868.01,-7.55663,9.63874,-67.78,-5001.34,-8268.07,-1124.08,17.4452,193.791,-117.56,8717.84,467.971,82.1064,-14.2428,33.9942,-2.21611
4.5605,3745.84,-1492.93,8960.9,20.9158,12.9994,-8.03015,4123.27,759.939,7002.81,22.9322,341.945,-187.447,-382.834,9981.51,-791.822,1.22616,14.5421,-56.6012,714.36,-7626.64,2881.79,22.3482,21.1892,-276.59,-724.618,9056.26,-1849.96,-7.39278,10.2189,-67.8608,-5016.7,-8204.12,-1133.21,17.5881,192.836,-118.327,8727.21,445.803,78.3041,-14.4188,34.4317,-1.99482
4.561,3751.36,-1491.81,8945.6,20.922,12.92,-7.97847,4138.27,910.394,7011.59,24.7611,341.344,-188.048,-399.255,9996.45,-798.706,1.16584,14.44,-56.5682,736.703,-7684.02,2854.71,21.8831,21.929,-277.316,-753.976,9063.47,-1831.91,-7.22893,10.799,-67.9416,-5032.05,-8140.18,-1142.33,17.731,191.882,-119.094,8736.58,423.635,74.5017,-14.5949,34.8693,-1.77353
4.5615,3756.89,-1490.69,8930.31,20.9283,12.8406,-7.9268,4153.26,1060.85,7020.38,26.59,340.743,-188.649,-415.677,10011.4,-805.59,1.10553,14.3378,-56.5353,759.046,-7741.4,2827.62,21.418,22.6687,-278.042,-783.333,9070.68,-1813.86,-7.06507,11.3792,-68.0224,-5047.41,-8076.23,-1151.45,17.8738,190.927,-119.861,8745.95,401.467,70.6994,-14.7709,35.3068,-1.55224
4.562,3762.42,-1489.57,8915.02,20.9345,12.7612,-7.87512,4168.25,1211.3,7029.16,28.4189,340.142,-189.251,-432.098,10026.3,-812.474,1.04521,14.2356,-56.5023,781.389,-7798.78,2800.53,20.9529,23.4085,-278.767,-812.691,9077.9,-1795.81,-6.90122,11.9593,-68.1032,-5062.77,-8012.28,-1160.57,18.0167,189.972,-120.628,8755.32,379.299,66.8971,-14.9469,35.7443,-1.33095
4.5625,3767.94,-1488.45,8899.73,20.9407,12.6818,-7.82345,4183.25,1361.76,7037.95,30.2478,339.541,-189.852,-448.52,10041.3,-819.358,0.98489,14.1334,-56.4694,803.732,-7856.17,2773.45,20.4878,24.1482,-279.493,-842.048,9085.11,-1777.76,-6.73737,12.5395,-68.184,-5078.12,-7948.34,-1169.69,18.1596,189.018,-121.395,8764.69,357.131,63.0947,-15.1229,36.1819,-1.10965
4.563,3773.47,-1487.33,8884.43,20.9469,12.6024,-7.77177,4198.24,1512.21,7046.73,32.0768,338.94,-190.453,-464.941,10056.2,-826.242,0.924572,14.0312,-56.4364,826.075,-7913.55,2746.36,20.0227,24.8879,-280.219,-871.406,9092.32,-1759.71,-6.57351,13.1196,-68.2649,-5093.48,-7884.39,-1178.81,18.3024,188.063,-122.162,8774.05,334.963,59.2924,-15.299,36.6194,-0.888365
4.5635,3779.0,-1486.21,8869.14,20.9531,12.523,-7.7201,4213.23,1662.67,7055.51,33.9057,338.338,-191.054,-481.363,10071.2,-833.126,0.864254,13.929,-56.4035,848.418,-7970.93,2719.28,19.5576,25.6277,-280.945,-900.763,9099.54,-1741.66,-6.40966,13.6998,-68.3457,-5108.83,-7820.45,-1187.93,18.4453,187.109,-122.929,8783.42,312.794,55.4901,-15.475,37.057,-0.667074
4.564,3784.52,-1485.09,8853.85,20.9593,12.4436,-7.66842,4228.23,1813.12,7064.3,35.7346,337.737,-191.656,-497.784,10086.1,-840.01,0.803936,13.8268,-56.3705,870.761,-8028.31,2692.19,19.0925,26.3674,-281.67,-930.121,9106.75,-1723.61,-6.24581,14.2799,-68.4265,-5124.19,-7756.5,-1197.05,18.5882,186.154,-123.696,8792.79,290.626,51.6878,-15.651,37.4945,-0.445784
4.5645,3790.13,-1485.16,8840.03,20.9537,12.3636,-7.62346,4237.71,1962.78,7070.53,37.475,337.09,-192.258,-512.791,10099.2,-846.511,0.737669,13.7286,-56.3352,900.643,-8089.51,2668.09,18.6294,27.0808,-282.402,-961.566,9115.04,-1708.01,-6.07933,14.8445,-68.5032,-5138.78,-7692.5,-1204.98,18.7043,185.078,-124.462,8800.83,267.498,48.138,-15.7878,37.9277,-0.245968
4.565,3796.37,-1494.74,8837.99,20.8527,12.279,-7.63216,4203.09,2106.04,7056.36,38.5075,336.07,-192.87,-516.478,10097.2,-849.955,0.623801,13.6616,-56.2804,990.832,-8181.28,2667.83,18.1826,27.5833,-283.186,-1009.71,9131.94,-1712.02,-5.89188,15.2846,-68.5475,-5147.28,-7628.09,-1203.33,18.607,183.03,-125.218,8798.2,236.69,46.6092,-15.6107,38.326,-0.217946
4.5655,3802.61,-1504.33,8835.94,20.7517,12.1944,-7.64087,4168.47,2249.3,7042.19,39.5401,335.05,-193.483,-520.166,10095.3,-853.399,0.509933,13.5947,-56.2257,1081.02,-8273.05,2667.58,17.7358,28.0858,-283.969,-1057.85,9148.85,-1716.03,-5.70442,15.7247,-68.5917,-5155.77,-7563.67,-1201.68,18.5096,180.983,-125.973,8795.57,205.881,45.0803,-15.4336,38.7244,-0.189925
4.566,3808.85,-1513.91,8833.9,20.6508,12.1097,-7.64958,4133.85,2392.56,7028.03,40.5727,334.031,-194.095,-523.853,10093.3,-856.843,0.396066,13.5277,-56.171,1171.21,-8364.82,2667.33,17.289,28.5884,-284.752,-1105.99,9165.75,-1720.04,-5.51697,16.1647,-68.6359,-5164.26,-7499.25,-1200.03,18.4122,178.935,-126.729,8792.94,175.072,43.5514,-15.2565,39.1227,-0.161903
4.5665,3815.1,-1523.5,8831.86,20.5498,12.0251,-7.65828,4099.24,2535.82,7013.86,41.6052,333.011,-194.707,-527.54,10091.4,-860.287,0.282198,13.4608,-56.1163,1261.4,-8456.59,2667.08,16.8423,29.0909,-285.536,-1154.13,9182.66,-1724.05,-5.32951,16.6048,-68.6802,-5172.76,-7434.84,-1198.38,18.3148,176.887,-127.484,8790.31,144.263,42.0225,-15.0794,39.521,-0.133881
4.567,3821.34,-1533.08,8829.82,20.4488,11.9405,-7.66699,4064.62,2679.09,6999.69,42.6378,331.992,-195.319,-531.227,10089.4,-863.731,0.168331,13.3938,-56.0616,1351.59,-8548.36,2666.82,16.3955,29.5934,-286.319,-1202.27,9199.56,-1728.07,-5.14206,17.0449,-68.7244,-5181.25,-7370.42,-1196.73,18.2174,174.84,-128.24,8787.68,113.455,40.4937,-14.9024,39.9194,-0.10586
4.5675,3827.58,-1542.67,8827.78,20.3479,11.8558,-7.67569,4030.0,2822.35,6985.52,43.6703,330.972,-195.932,-534.915,10087.4,-867.175,0.0544629,13.3269,-56.0069,1441.78,-8640.13,2666.57,15.9487,30.0959,-287.102,-1250.42,9216.46,-1732.08,-4.95461,17.485,-68.7687,-5189.74,-7306.01,-1195.09,18.12,172.792,-128.996,8785.05,82.6458,38.9648,-14.7253,40.3177,-0.0778379
4.568,3833.82,-1552.25,8825.73,20.2469,11.7712,-7.6844,3995.38,2965.61,6971.35,44.7029,329.953,-196.544,-538.602,10085.5,-870.62,-0.0594047,13.2599,-55.9522,1531.97,-8731.9,2666.32,15.5019,30.5985,-287.885,-1298.56,9233.37,-1736.09,-4.76715,17.9251,-68.8129,-5198.23,-7241.59,-1193.44,18.0227,170.744,-129.751,8782.42,51.837,37.4359,-14.5482,40.7161,-0.0498163
4.5685,3840.07,-1561.84,8823.69,20.1459,11.6866,-7.69311,3960.77,3108.87,6957.18,45.7354,328.933,-197.156,-542.289,10083.5,-874.064,-0.173272,13.193,-55.8975,1622.16,-8823.67,2666.06,15.0552,31.101,-288.669,-1346.7,9250.27,-1740.1,-4.5797,18.3651,-68.8572,-5206.73,-7177.18,-1191.79,17.9253,168.697,-130.507,8779.8,21.0282,35.907,-14.3711,41.1144,-0.0217946
4.569,3846.9,-1566.71,8822.95,20.048,11.6158,-7.69989,3920.19,3248.23,6956.17,46.5522,327.753,-197.781,-548.164,10077.7,-873.552,-0.290925,13.1415,-55.8292,1713.56,-8916.73,2662.06,14.7634,31.5901,-289.441,-1396.47,9267.01,-1743.15,-4.38999,18.7548,-68.895,-5212.85,-7115.93,-1194.15,17.7231,166.506,-131.236,8786.95,-12.6183,38.3987,-14.2241,41.4486,-0.00270212
4.5695,3855.82,-1555.12,8826.75,19.9606,11.5935,-7.69994,3858.76,3373.92,7001.23,46.6141,326.012,-198.447,-561.697,10058.3,-859.196,-0.421827,13.144,-55.7135,1809.18,-9014.32,2644.94,15.014,32.0324,-290.177,-1451.94,9283.18,-1742.82,-4.1924,18.9683,-68.9102,-5210.65,-7065.77,-1210.54,17.1539,163.814,-131.875,8828.32,-56.1967,54.9621,-14.1828,41.5584,-0.0148617
4.57,3864.73,-1543.52,8830.56,19.8731,11.5712,-7.7,3797.34,3499.62,7046.29,46.6759,324.27,-199.114,-575.229,10039.0,-844.839,-0.552729,13.1465,-55.5978,1904.81,-9111.91,2627.83,15.2646,32.4747,-290.912,-1507.41,9299.34,-1742.49,-3.99481,19.1817,-68.9255,-5208.46,-7015.62,-1226.94,16.5848,161.122,-132.514,8869.7,-99.7751,71.5256,-14.1414,41.6682,-0.0270212
4.5705,3873.64,-1531.93,8834.36,19.7857,11.5489,-7.70005,3735.91,3625.31,7091.35,46.7377,322.528,-199.781,-588.762,10019.6,-830.483,-0.683631,13.1491,-55.4821,2000.43,-9209.49,2610.71,15.5152,32.917,-291.648,-1562.88,9315.51,-1742.16,-3.79722,19.3952,-68.9408,-5206.27,-6965.46,-1243.34,16.0157,158.43,-133.152,8911.08,-143.354,88.0891,-14.1,41.778,-0.0391807
4.571,3882.56,-1520.33,8838.16,19.6983,11.5266,-7.7001,3674.48,3751.01,7136.41,46.7996,320.787,-200.448,-602.294,10000.2,-816.127,-0.814533,13.1516,-55.3665,2096.06,-9307.08,2593.59,15.7658,33.3593,-292.383,-1618.35,9331.68,-1741.83,-3.59963,19.6086,-68.956,-5204.07,-6915.3,-1259.73,15.4466,155.739,-133.791,8952.46,-186.932,104.653,-14.0586,41.8878,-0.0513403
4.5715,3891.47,-1508.74,8841.96,19.6109,11.5043,-7.70015,3613.06,3876.7,7181.47,46.8614,319.045,-201.115,-615.826,9980.88,-801.77,-0.945435,13.1541,-55.2508,2191.69,-9404.67,2576.47,16.0164,33.8016,-293.119,-1673.82,9347.84,-1741.5,-3.40203,19.822,-68.9713,-5201.88,-6865.15,-1276.13,14.8775,153.047,-134.429,8993.83,-230.51,121.216,-14.0172,41.9976,-0.0634998
4.572,3900.38,-1497.14,8845.77,19.5235,11.482,-7.70021,3551.63,4002.4,7226.53,46.9232,317.303,-201.781,-629.358,9961.52,-787.414,-1.07634,13.1566,-55.1351,2287.31,-9502.25,2559.35,16.2671,34.2439,-293.854,-1729.29,9364.01,-1741.17,-3.20444,20.0355,-68.9866,-5199.69,-6814.99,-1292.52,14.3084,150.355,-135.068,9035.21,-274.089,137.779,-13.9759,42.1074,-0.0756594
4.5725,3909.29,-1485.55,8849.57,19.4361,11.4597,-7.70026,3490.2,4128.09,7271.59,46.9851,315.562,-202.448,-642.891,9942.15,-773.058,-1.20724,13.1592,-55.0194,2382.94,-9599.84,2542.23,16.5177,34.6862,-294.59,-1784.76,9380.17,-1740.84,-3.00685,20.2489,-69.0018,-5197.5,-6764.84,-1308.92,13.7392,147.663,-135.706,9076.59,-317.667,154.343,-13.9345,42.2172,-0.0878189
4.573,3918.21,-1473.95,8853.37,19.3487,11.4374,-7.70031,3428.78,4253.79,7316.65,47.0469,313.82,-203.115,-656.423,9922.79,-758.701,-1.33814,13.1617,-54.9037,2478.57,-9697.42,2525.11,16.7683,35.1285,-295.325,-1840.23,9396.34,-1740.51,-2.80926,20.4624,-69.0171,-5195.3,-6714.68,-1325.31,13.1701,144.971,-136.345,9117.96,-361.246,170.906,-13.8931,42.327,-0.0999784
4.5735,3930.2,-1459.1,8860.58,19.2631,11.4016,-7.67004,3364.51,4362.34,7356.16,46.7282,311.962,-203.868,-664.915,9910.92,-743.005,-1.42546,13.1999,-54.7909,2551.78,-9794.88,2517.83,17.2817,35.4561,-295.941,-1895.03,9403.67,-1733.41,-2.63774,20.5936,-69.0481,-5196.98,-6671.52,-1338.12,12.5433,142.234,-136.947,9152.03,-392.485,184.599,-13.9306,42.3864,-0.106557
4.574,3948.34,-1437.74,8874.6,19.1813,11.3387,-7.5791,3294.55,4436.62,7384.56,45.6486,309.872,-204.791,-663.325,9914.04,-724.628,-1.42562,13.3097,-54.6839,2580.15,-9892.07,2530.23,18.3206,35.5542,-296.317,-1948.49,9393.33,-1712.76,-2.51835,20.5605,-69.1106,-5206.41,-6642.37,-1343.76,11.8009,139.406,-137.474,9171.45,-399.047,192.55,-14.126,42.345,-0.101972
4.5745,3966.48,-1416.38,8888.62,19.0994,11.2757,-7.48816,3224.59,4510.89,7412.97,44.569,307.781,-205.715,-661.736,9917.15,-706.25,-1.42577,13.4194,-54.5768,2608.53,-9989.26,2542.63,19.3595,35.6522,-296.692,-2001.95,9382.98,-1692.11,-2.39896,20.5274,-69.1732,-5215.84,-6613.22,-1349.4,11.0585,136.579,-138.001,9190.88,-405.608,200.502,-14.3214,42.3036,-0.097388
4.575,3984.62,-1395.02,8902.64,19.0176,11.2128,-7.39723,3154.63,4585.17,7441.38,43.4894,305.69,-206.639,-660.146,9920.27,-687.873,-1.42593,13.5291,-54.4698,2636.91,-10086.5,2555.02,20.3983,35.7503,-297.068,-2055.41,9372.64,-1671.46,-2.27957,20.4943,-69.2357,-5225.27,-6584.06,-1355.05,10.3162,133.751,-138.529,9210.3,-412.17,208.453,-14.5167,42.2622,-0.0928036
4.5755,4002.76,-1373.66,8916.66,18.9357,11.1499,-7.30629,3084.67,4659.45,7469.79,42.4097,303.6,-207.563,-658.557,9923.38,-669.496,-1.42608,13.6388,-54.3628,2665.29,-10183.6,2567.42,21.4372,35.8484,-297.444,-2108.87,9362.3,-1650.81,-2.16018,20.4612,-69.2982,-5234.7,-6554.91,-1360.69,9.57379,130.924,-139.056,9229.73,-418.732,216.404,-14.7121,42.2208,-0.0882193
4.576,4020.9,-1352.3,8930.68,18.8539,11.0869,-7.21536,3014.71,4733.72,7498.2,41.3301,301.509,-208.486,-656.967,9926.5,-651.119,-1.42624,13.7486,-54.2558,2693.67,-10280.8,2579.82,22.4761,35.9464,-297.819,-2162.33,9351.96,-1630.16,-2.04079,20.4281,-69.3607,-5244.13,-6525.75,-1366.33,8.83143,128.096,-139.583,9249.16,-425.293,224.356,-14.9075,42.1794,-0.083635
4.5765,4039.04,-1330.94,8944.7,18.7721,11.024,-7.12442,2944.75,4808.0,7526.61,40.2505,299.419,-209.41,-655.378,9929.62,-632.741,-1.42639,13.8583,-54.1488,2722.04,-10378.0,2592.21,23.515,36.0445,-298.195,-2215.79,9341.62,-1609.52,-1.9214,20.395,-69.4233,-5253.56,-6496.6,-1371.97,8.08906,125.268,-140.111,9268.58,-431.855,232.307,-15.1028,42.138,-0.0790506
4.577,4057.18,-1309.58,8958.72,18.6902,10.961,-7.03348,2874.79,4882.27,7555.02,39.1709,297.328,-210.334,-653.788,9932.73,-614.364,-1.42655,13.968,-54.0417,2750.42,-10475.2,2604.61,24.5539,36.1426,-298.571,-2269.25,9331.27,-1588.87,-1.80201,20.3619,-69.4858,-5262.99,-6467.45,-1377.61,7.3467,122.441,-140.638,9288.01,-438.416,240.258,-15.2982,42.0967,-0.0744663
4.5775,4075.32,-1288.22,8972.74,18.6084,10.8981,-6.94255,2804.84,4956.55,7583.43,38.0912,295.237,-211.258,-652.199,9935.85,-595.987,-1.4267,14.0778,-53.9347,2778.8,-10572.4,2617.01,25.5928,36.2406,-298.947,-2322.71,9320.93,-1568.22,-1.68262,20.3288,-69.5483,-5272.42,-6438.29,-1383.25,6.60433,119.613,-141.166,9307.43,-444.978,248.21,-15.4936,42.0553,-0.0698819
4.578,4076.75,-1270.4,8974.14,18.5562,10.794,-6.85785,2777.27,5008.92,7604.49,36.6606,293.21,-212.347,-645.568,9939.04,-581.142,-1.39595,14.1241,-53.7966,2766.89,-10658.7,2633.83,26.7171,36.4034,-299.115,-2371.54,9316.24,-1552.31,-1.59344,20.2114,-69.6265,-5276.59,-6424.96,-1375.33,5.95665,116.928,-141.685,9327.2,-457.17,241.845,-15.5956,42.0381,-0.10024
4.5785,4057.3,-1256.99,8959.78,18.541,10.6384,-6.78096,2802.7,5033.91,7616.34,34.7911,291.262,-213.642,-632.636,9942.31,-570.711,-1.32656,14.0913,-53.6196,2704.62,-10731.4,2656.19,27.9484,36.6472,-299.023,-2414.59,9318.6,-1542.33,-1.542,19.9886,-69.7244,-5274.18,-6431.39,-1350.45,5.42733,114.421,-142.193,9347.39,-476.4,217.586,-15.581,42.0511,-0.174276
4.579,4037.85,-1243.59,8945.41,18.5258,10.4829,-6.70406,2828.14,5058.9,7628.2,32.9216,289.313,-214.938,-619.704,9945.58,-560.281,-1.25718,14.0585,-53.4426,2642.35,-10804.1,2678.55,29.1796,36.8909,-298.932,-2457.64,9320.96,-1532.35,-1.49056,19.7659,-69.8222,-5271.78,-6437.82,-1325.57,4.89801,111.914,-142.701,9367.58,-495.63,193.326,-15.5663,42.0641,-0.248311
4.5795,4018.39,-1230.18,8931.05,18.5106,10.3273,-6.62716,2853.57,5083.89,7640.05,31.0522,287.365,-216.233,-606.772,9948.86,-549.85,-1.18779,14.0257,-53.2656,2580.08,-10876.7,2700.9,30.4109,37.1347,-298.841,-2500.69,9323.32,-1522.36,-1.43913,19.5431,-69.92,-5269.37,-6444.25,-1300.69,4.36868,109.408,-143.209,9387.77,-514.861,169.067,-15.5517,42.0771,-0.322347
4.58,3998.94,-1216.77,8916.68,18.4955,10.1717,-6.55027,2879.0,5108.88,7651.91,29.1827,285.417,-217.529,-593.84,9952.13,-539.42,-1.11841,13.9929,-53.0886,2517.81,-10949.4,2723.26,31.6421,37.3784,-298.749,-2543.75,9325.68,-1512.38,-1.38769,19.3203,-70.0178,-5266.96,-6450.68,-1275.81,3.83936,106.901,-143.718,9407.96,-534.091,144.807,-15.537,42.0901,-0.396383
4.5805,3979.49,-1203.37,8902.32,18.4803,10.0162,-6.47337,2904.43,5133.87,7663.76,27.3133,283.468,-218.824,-580.908,9955.41,-528.99,-1.04902,13.9601,-52.9116,2455.54,-11022.1,2745.62,32.8734,37.6222,-298.658,-2586.8,9328.04,-1502.4,-1.33625,19.0976,-70.1157,-5264.56,-6457.11,-1250.93,3.31004,104.394,-144.226,9428.16,-553.321,120.548,-15.5224,42.1031,-0.470418
4.581,3960.04,-1189.96,8887.95,18.4651,9.86058,-6.39648,2929.86,5158.86,7675.62,25.4438,281.52,-220.119,-567.976,9958.68,-518.559,-0.979636,13.9273,-52.7347,2393.28,-11094.8,2767.97,34.1046,37.8659,-298.566,-2629.85,9330.4,-1492.42,-1.28481,18.8748,-70.2135,-5262.15,-6463.54,-1226.04,2.78071,101.887,-144.734,9448.35,-572.551,96.2881,-15.5078,42.1161,-0.544454
4.5815,3940.59,-1176.56,8873.59,18.45,9.70501,-6.31958,2955.29,5183.85,7687.47,23.5743,279.572,-221.415,-555.044,9961.95,-508.129,-0.910251,13.8945,-52.5577,2331.01,-11167.4,2790.33,35.3359,38.1096,-298.475,-2672.9,9332.76,-1482.43,-1.23338,18.6521,-70.3113,-5259.74,-6469.98,-1201.16,2.25139,99.3805,-145.243,9468.54,-591.782,72.0286,-15.4931,42.1291,-0.61849
4.582,3921.14,-1163.15,8859.22,18.4348,9.54944,-6.24269,2980.72,5208.84,7699.33,21.7049,277.623,-222.71,-542.112,9965.23,-497.698,-0.840865,13.8617,-52.3807,2268.74,-11240.1,2812.69,36.5671,38.3534,-298.384,-2715.95,9335.12,-1472.45,-1.18194,18.4293,-70.4091,-5257.33,-6476.41,-1176.28,1.72207,96.8737,-145.751,9488.73,-611.012,47.7691,-15.4785,42.1421,-0.692526
4.5825,3909.78,-1158.09,8861.8,18.4185,9.39041,-6.13179,3048.74,5228.4,7709.85,20.0988,275.926,-224.036,-538.143,9966.59,-489.256,-0.774423,13.8743,-52.2218,2176.68,-11298.6,2814.22,37.5282,39.131,-298.28,-2757.3,9341.93,-1460.7,-1.1034,18.1539,-70.5479,-5257.9,-6494.41,-1136.89,1.38631,94.6785,-146.141,9508.65,-628.609,31.4512,-15.4769,42.0789,-0.754183
4.583,3904.89,-1159.72,8877.92,18.4013,9.2286,-5.99369,3150.82,5243.61,7719.32,18.7034,274.428,-225.387,-541.344,9966.42,-482.405,-0.710337,13.9233,-52.0773,2060.78,-11345.8,2799.1,38.2732,40.3356,-298.167,-2797.29,9352.3,-1447.54,-1.00317,17.8364,-70.7194,-5260.86,-6521.66,-1085.89,1.20539,92.7326,-146.438,9528.35,-644.9,21.4866,-15.4857,41.9547,-0.805937
4.5835,3900.0,-1161.34,8894.05,18.3841,9.06679,-5.85559,3252.9,5258.83,7728.78,17.308,272.931,-226.737,-544.546,9966.25,-475.554,-0.64625,13.9722,-51.9329,1944.89,-11393.0,2783.97,39.0182,41.5403,-298.053,-2837.27,9362.68,-1434.38,-0.902945,17.5189,-70.8909,-5263.81,-6548.91,-1034.88,1.02448,90.7867,-146.734,9548.06,-661.191,11.5219,-15.4944,41.8306,-0.857692
4.584,3895.11,-1162.97,8910.18,18.3669,8.90499,-5.71749,3354.98,5274.04,7738.25,15.9126,271.434,-228.088,-547.748,9966.08,-468.703,-0.582164,14.0212,-51.7884,1829.0,-11440.1,2768.85,39.7632,42.745,-297.94,-2877.26,9373.05,-1421.22,-0.802718,17.2014,-71.0625,-5266.76,-6576.16,-983.876,0.843561,88.8409,-147.03,9567.76,-677.481,1.55733,-15.5032,41.7064,-0.909446
4.5845,3890.22,-1164.59,8926.3,18.3497,8.74318,-5.57939,3457.06,5289.26,7747.71,14.5172,269.937,-229.439,-550.949,9965.91,-461.852,-0.518077,14.0702,-51.644,1713.1,-11487.3,2753.73,40.5082,43.9496,-297.827,-2917.25,9383.42,-1408.06,-0.702491,16.8839,-71.234,-5269.71,-6603.41,-932.872,0.662646,86.895,-147.326,9587.46,-693.772,-8.40727,-15.512,41.5822,-0.961201
4.585,3885.33,-1166.22,8942.43,18.3325,8.58137,-5.44129,3559.14,5304.47,7757.17,13.1218,268.44,-230.789,-554.151,9965.73,-455.001,-0.45399,14.1192,-51.4995,1597.21,-11534.5,2738.6,41.2531,45.1543,-297.713,-2957.24,9393.79,-1394.9,-0.602264,16.5664,-71.4055,-5272.66,-6630.67,-881.867,0.481731,84.9491,-147.622,9607.17,-710.063,-18.3719,-15.5208,41.4581,-1.01296
4.5855,3880.44,-1167.84,8958.55,18.3153,8.41956,-5.30318,3661.22,5319.69,7766.64,11.7264,266.943,-232.14,-557.353,9965.56,-448.15,-0.389904,14.1681,-51.3551,1481.32,-11581.7,2723.48,41.9981,46.359,-297.6,-2997.23,9404.17,-1381.74,-0.502037,16.2489,-71.577,-5275.62,-6657.92,-830.863,0.300816,83.0032,-147.918,9626.87,-726.354,-28.3365,-15.5296,41.3339,-1.06471
4.586,3875.55,-1169.46,8974.68,18.2981,8.25776,-5.16508,3763.3,5334.9,7776.1,10.331,265.446,-233.49,-560.554,9965.39,-441.299,-0.325817,14.2171,-51.2106,1365.42,-11628.9,2708.36,42.7431,47.5636,-297.487,-3037.22,9414.54,-1368.58,-0.40181,15.9314,-71.7486,-5278.57,-6685.17,-779.858,0.119901,81.0573,-148.214,9646.57,-742.645,-38.3011,-15.5384,41.2098,-1.11646
4.5865,3870.66,-1171.09,8990.81,18.2809,8.09595,-5.02698,3865.38,5350.12,7785.56,8.93561,263.949,-234.841,-563.756,9965.22,-434.448,-0.26173,14.2661,-51.0662,1249.53,-11676.0,2693.24,43.4881,48.7683,-297.373,-3077.2,9424.91,-1355.42,-0.301583,15.6139,-71.9201,-5281.52,-6712.42,-728.854,-0.061014,79.1114,-148.51,9666.28,-758.935,-48.2657,-15.5472,41.0856,-1.16822
4.587,3866.0,-1176.35,8998.79,18.2072,7.9628,-4.94502,4019.42,5355.18,7852.01,7.78181,262.619,-236.054,-571.714,9969.37,-439.859,-0.186249,14.2203,-50.9254,1140.26,-11731.3,2702.22,43.8567,50.2935,-297.517,-3107.66,9421.82,-1335.56,-0.237833,15.2516,-72.1034,-5297.58,-6750.57,-681.33,-0.0912237,77.833,-148.558,9682.24,-769.889,-47.6902,-15.5083,40.7774,-1.28163
4.5875,3861.45,-1183.43,9002.7,18.1052,7.84398,-4.89112,4199.43,5355.17,7946.94,6.7488,261.371,-237.197,-582.05,9975.66,-451.402,-0.105071,14.1271,-50.7866,1034.3,-11790.7,2723.25,44.0372,51.9791,-297.789,-3133.36,9411.99,-1312.35,-0.192322,14.8669,-72.2925,-5320.2,-6794.17,-635.546,-0.0460808,76.8884,-148.481,9696.34,-778.173,-41.8445,-15.4457,40.3771,-1.42588
4.588,3856.9,-1190.51,9006.61,18.0032,7.72516,-4.83722,4379.44,5355.16,8041.87,5.7158,260.123,-238.341,-592.386,9981.96,-462.945,-0.0238924,14.0339,-50.6477,928.345,-11850.0,2744.29,44.2177,53.6646,-298.061,-3159.06,9402.16,-1289.13,-0.146811,14.4822,-72.4816,-5342.82,-6837.78,-589.763,-0.000937892,75.9438,-148.405,9710.44,-786.457,-35.9989,-15.383,39.9768,-1.57012
4.5885,3852.34,-1197.59,9010.52,17.9013,7.60634,-4.78332,4559.45,5355.15,8136.8,4.68279,258.875,-239.485,-602.722,9988.26,-474.488,0.0572859,13.9407,-50.5088,822.387,-11909.3,2765.33,44.3981,55.3502,-298.332,-3184.75,9392.34,-1265.92,-0.1013,14.0975,-72.6708,-5365.44,-6881.38,-543.979,0.044205,74.9991,-148.329,9724.54,-794.742,-30.1533,-15.3204,39.5765,-1.71436
4.589,3847.79,-1204.68,9014.42,17.7993,7.48752,-4.72941,4739.47,5355.14,8231.73,3.64979,257.628,-240.629,-613.058,9994.55,-486.031,0.138464,13.8475,-50.3699,716.429,-11968.7,2786.36,44.5786,57.0357,-298.604,-3210.45,9382.51,-1242.7,-0.0557884,13.7129,-72.8599,-5388.06,-6924.98,-498.196,0.0893479,74.0545,-148.252,9738.63,-803.026,-24.3077,-15.2577,39.1762,-1.85861
4.5895,3843.24,-1211.76,9018.33,17.6973,7.3687,-4.67551,4919.48,5355.13,8326.67,2.61678,256.38,-241.773,-623.394,10000.8,-497.574,0.219643,13.7543,-50.2311,610.47,-12028.0,2807.4,44.759,58.7212,-298.876,-3236.15,9372.69,-1219.49,-0.0102771,13.3282,-73.0491,-5410.68,-6968.58,-452.412,0.134491,73.1099,-148.176,9752.73,-811.311,-18.462,-15.1951,38.776,-2.00285
4.59,3838.69,-1218.84,9022.24,17.5953,7.24989,-4.62161,5099.49,5355.12,8421.6,1.58377,255.132,-242.916,-633.73,10007.1,-509.116,0.300821,13.6611,-50.0922,504.512,-12087.3,2828.44,44.9395,60.4068,-299.148,-3261.84,9362.86,-1196.27,0.0352342,12.9435,-73.2382,-5433.3,-7012.18,-406.628,0.179634,72.1653,-148.1,9766.83,-819.595,-12.6164,-15.1324,38.3757,-2.1471
4.5905,3834.14,-1225.92,9026.15,17.4934,7.13107,-4.56771,5279.5,5355.11,8516.53,0.550768,253.885,-244.06,-644.066,10013.4,-520.659,0.381999,13.5679,-49.9533,398.554,-12146.7,2849.47,45.12,62.0923,-299.42,-3287.54,9353.04,-1173.06,0.0807455,12.5588,-73.4274,-5455.92,-7055.78,-360.845,0.224777,71.2206,-148.023,9780.93,-827.88,-6.77079,-15.0698,37.9754,-2.29134
4.591,3829.59,-1233.0,9030.06,17.3914,7.01225,-4.51381,5459.51,5355.1,8611.46,-0.482238,252.637,-245.204,-654.402,10019.7,-532.202,0.463178,13.4747,-49.8144,292.596,-12206.0,2870.51,45.3004,63.7778,-299.692,-3313.23,9343.21,-1149.84,0.126257,12.1741,-73.6165,-5478.54,-7099.39,-315.061,0.26992,70.276,-147.947,9795.03,-836.164,-0.925169,-15.0071,37.5751,-2.43558
4.5915,3830.44,-1223.67,9049.9,17.2451,6.84485,-4.47944,5655.16,5327.52,8676.49,-1.42427,251.622,-246.261,-664.406,10034.7,-529.196,0.521501,13.4755,-49.6412,196.548,-12259.8,2921.04,45.4232,65.1368,-300.199,-3328.83,9340.18,-1127.71,0.0628938,11.7443,-73.8228,-5502.79,-7144.43,-275.292,0.236615,70.2594,-147.451,9826.86,-835.664,-1.99662,-14.9593,37.2222,-2.5111
4.592,3832.82,-1209.66,9074.29,17.0863,6.66358,-4.45065,5855.28,5292.06,8732.98,-2.34032,250.674,-247.294,-674.314,10052.2,-522.032,0.573295,13.5031,-49.4582,103.332,-12311.9,2980.01,45.5295,66.4024,-300.774,-3341.54,9339.09,-1105.89,-0.031576,11.3017,-74.0339,-5527.5,-7189.88,-237.242,0.180897,70.508,-146.835,9863.77,-832.655,-5.04437,-14.9157,36.8828,-2.56698
4.5925,3835.21,-1195.64,9098.69,16.9274,6.4823,-4.42186,6055.4,5256.6,8789.47,-3.25636,249.725,-248.326,-684.223,10069.7,-514.868,0.625088,13.5308,-49.2751,10.1151,-12364.1,3038.97,45.6358,67.668,-301.349,-3354.26,9338.0,-1084.06,-0.126046,10.8591,-74.245,-5552.22,-7235.34,-199.191,0.125179,70.7565,-146.219,9900.67,-829.645,-8.09213,-14.8721,36.5434,-2.62285
4.593,3837.59,-1181.62,9123.08,16.7685,6.30103,-4.39308,6255.52,5221.13,8845.95,-4.17241,248.777,-249.358,-694.131,10087.2,-507.705,0.676881,13.5584,-49.0921,-83.1015,-12416.2,3097.93,45.7421,68.9336,-301.924,-3366.97,9336.91,-1062.24,-0.220516,10.4164,-74.4562,-5576.94,-7280.79,-161.141,0.0694607,71.0051,-145.603,9937.58,-826.635,-11.1399,-14.8285,36.2039,-2.67873
4.5935,3839.98,-1167.61,9147.47,16.6096,6.11976,-4.36429,6455.64,5185.67,8902.44,-5.08845,247.828,-250.391,-704.039,10104.6,-500.541,0.728675,13.5861,-48.9091,-176.318,-12468.4,3156.89,45.8484,70.1992,-302.499,-3379.68,9335.82,-1040.42,-0.314986,9.97381,-74.6673,-5601.65,-7326.24,-123.09,0.0137426,71.2537,-144.987,9974.49,-823.626,-14.1876,-14.7849,35.8645,-2.73461
4.594,3842.36,-1153.59,9171.86,16.4507,5.93848,-4.3355,6655.76,5150.21,8958.93,-6.0045,246.88,-251.423,-713.948,10122.1,-493.378,0.780468,13.6137,-48.7261,-269.535,-12520.5,3215.85,45.9547,71.4648,-303.074,-3392.39,9334.73,-1018.6,-0.409455,9.53118,-74.8784,-5626.37,-7371.7,-85.0393,-0.0419755,71.5022,-144.371,10011.4,-820.616,-17.2354,-14.7414,35.5251,-2.79049
4.5945,3844.75,-1139.57,9196.26,16.2919,5.75721,-4.30671,6855.88,5114.75,9015.41,-6.92054,245.931,-252.456,-723.856,10139.6,-486.214,0.832262,13.6414,-48.543,-362.751,-12572.7,3274.82,46.061,72.7304,-303.649,-3405.11,9333.64,-996.774,-0.503925,9.08855,-75.0896,-5651.08,-7417.15,-46.9888,-0.0976936,71.7508,-143.756,10048.3,-817.607,-20.2832,-14.6978,35.1857,-2.84636
4.595,3847.13,-1125.56,9220.65,16.133,5.57594,-4.27792,7056.0,5079.29,9071.9,-7.83659,244.983,-253.488,-733.765,10157.1,-479.051,0.884055,13.669,-48.36,-455.968,-12624.8,3333.78,46.1672,73.9961,-304.224,-3417.82,9332.55,-974.951,-0.598395,8.64593,-75.3007,-5675.8,-7462.61,-8.93817,-0.153412,71.9993,-143.14,10085.2,-814.597,-23.3309,-14.6542,34.8463,-2.90224
4.5955,3849.52,-1111.54,9245.04,15.9741,5.39466,-4.24913,7256.12,5043.83,9128.39,-8.75263,244.034,-254.521,-743.673,10174.5,-471.887,0.935848,13.6967,-48.177,-549.184,-12677.0,3392.74,46.2735,75.2617,-304.799,-3430.53,9331.46,-953.129,-0.692865,8.2033,-75.5119,-5700.52,-7508.06,29.1124,-0.20913,72.2479,-142.524,10122.1,-811.588,-26.3787,-14.6106,34.5069,-2.95812
4.596,3854.41,-1099.82,9233.24,15.8719,5.25474,-4.17911,7438.5,5009.24,9175.5,-9.84586,243.332,-255.48,-749.038,10167.6,-469.984,0.990486,13.6403,-48.0979,-613.657,-12718.5,3412.85,46.3685,76.3225,-305.217,-3431.18,9343.21,-922.805,-0.865751,7.55995,-75.7432,-5706.22,-7543.24,74.8191,-0.264861,73.2871,-141.536,10139.2,-842.011,-31.4714,-14.621,34.1905,-3.08873
4.5965,3859.61,-1088.39,9216.92,15.7767,5.11998,-4.10394,7618.67,4974.75,9221.44,-10.9612,242.661,-256.43,-753.835,10157.5,-468.739,1.04548,13.5734,-48.0317,-674.537,-12758.7,3428.09,46.4621,77.3577,-305.614,-3430.31,9356.57,-891.419,-1.04844,6.89151,-75.9772,-5709.55,-7577.13,121.483,-0.320593,74.4251,-140.501,10153.8,-876.614,-36.8198,-14.6381,33.877,-3.22868
4.597,3864.82,-1076.96,9200.6,15.6815,4.98523,-4.02876,7798.84,4940.27,9267.38,-12.0766,241.99,-257.38,-758.632,10147.5,-467.493,1.10047,13.5065,-47.9655,-735.417,-12798.9,3443.34,46.5557,78.393,-306.012,-3429.45,9369.93,-860.033,-1.23113,6.22307,-76.2111,-5712.88,-7611.03,168.146,-0.376326,75.5631,-139.466,10168.4,-911.216,-42.1682,-14.6552,33.5635,-3.36863
4.5975,3870.02,-1065.52,9184.28,15.5864,4.85048,-3.95359,7979.0,4905.78,9313.32,-13.192,241.319,-258.33,-763.429,10137.5,-466.248,1.15547,13.4396,-47.8994,-796.297,-12839.0,3458.59,46.6492,79.4282,-306.41,-3428.58,9383.29,-828.647,-1.41381,5.55463,-76.445,-5716.21,-7644.92,214.81,-0.432058,76.7011,-138.431,10182.9,-945.819,-47.5166,-14.6723,33.25,-3.50859
4.598,3875.22,-1054.09,9167.96,15.4912,4.71572,-3.87842,8159.17,4871.3,9359.26,-14.3074,240.648,-259.28,-768.227,10127.4,-465.002,1.21046,13.3727,-47.8332,-857.177,-12879.2,3473.84,46.7428,80.4635,-306.808,-3427.72,9396.65,-797.261,-1.5965,4.88618,-76.6789,-5719.54,-7678.81,261.474,-0.487791,77.8391,-137.396,10197.5,-980.421,-52.865,-14.6894,32.9365,-3.64854
4.5985,3880.43,-1042.66,9151.64,15.396,4.58097,-3.80325,8339.34,4836.81,9405.2,-15.4227,239.977,-260.23,-773.024,10117.4,-463.757,1.26545,13.3058,-47.7671,-918.058,-12919.4,3489.08,46.8364,81.4987,-307.206,-3426.86,9410.01,-765.875,-1.77919,4.21774,-76.9128,-5722.86,-7712.71,308.137,-0.543523,78.9771,-136.362,10212.1,-1015.02,-58.2134,-14.7065,32.623,-3.78849
4.599,3885.63,-1031.23,9135.32,15.3008,4.44621,-3.72807,8519.51,4802.33,9451.13,-16.5381,239.306,-261.18,-777.821,10107.3,-462.512,1.32045,13.2389,-47.7009,-978.938,-12959.6,3504.33,46.93,82.534,-307.604,-3425.99,9423.36,-734.489,-1.96188,3.5493,-77.1468,-5726.19,-7746.6,354.801,-0.599256,80.1151,-135.327,10226.7,-1049.63,-63.5617,-14.7236,32.3095,-3.92845
4.5995,3890.83,-1019.79,9119.0,15.2057,4.31146,-3.6529,8699.67,4767.85,9497.07,-17.6535,238.634,-262.129,-782.618,10097.3,-461.266,1.37544,13.172,-47.6348,-1039.82,-12999.8,3519.58,47.0235,83.5692,-308.002,-3425.13,9436.72,-703.103,-2.14456,2.88086,-77.3807,-5729.52,-7780.49,401.465,-0.654988,81.2531,-134.292,10241.3,-1084.23,-68.9101,-14.7407,31.996,-4.0684
4.6,3896.04,-1008.36,9102.68,15.1105,4.17671,-3.57773,8879.84,4733.36,9543.01,-18.7689,237.963,-263.079,-787.415,10087.3,-460.021,1.43044,13.1051,-47.5686,-1100.7,-13040.0,3534.83,47.1171,84.6045,-308.4,-3424.27,9450.08,-671.717,-2.32725,2.21242,-77.6146,-5732.85,-7814.39,448.128,-0.710721,82.3911,-133.257,10255.9,-1118.83,-74.2585,-14.7578,31.6824,-4.20835
4.6005,3883.59,-998.969,9115.46,14.9194,3.92001,-3.43459,9022.12,4752.4,9565.49,-20.0008,237.632,-263.654,-788.73,10108.7,-450.344,1.38901,13.0352,-47.5066,-1142.15,-13077.9,3484.3,47.2604,85.7798,-308.565,-3419.77,9461.54,-635.895,-2.47598,1.35224,-77.763,-5689.3,-7843.07,490.553,-0.44163,84.0753,-132.086,10266.9,-1099.39,-80.222,-14.7192,31.423,-4.22205
4.601,3871.15,-989.577,9128.23,14.7283,3.66331,-3.29144,9164.4,4771.44,9587.98,-21.2328,237.301,-264.228,-790.045,10130.2,-440.667,1.34758,12.9653,-47.4446,-1183.6,-13115.9,3433.78,47.4038,86.9552,-308.729,-3415.28,9473.0,-600.074,-2.6247,0.492057,-77.9115,-5645.75,-7871.75,532.977,-0.172539,85.7595,-130.915,10277.9,-1079.96,-86.1855,-14.6806,31.1635,-4.23574
4.6015,3858.7,-980.184,9141.01,14.5371,3.40662,-3.1483,9306.69,4790.48,9610.46,-22.4648,236.969,-264.802,-791.361,10151.6,-430.989,1.30616,12.8953,-47.3826,-1225.04,-13153.8,3383.26,47.5471,88.1306,-308.893,-3410.78,9484.45,-564.252,-2.77343,-0.368124,-78.0599,-5602.2,-7900.44,575.401,0.0965514,87.4437,-129.744,10288.9,-1060.52,-92.149,-14.642,30.9041,-4.24944
4.602,3846.26,-970.791,9153.79,14.346,3.14992,-3.00516,9448.97,4809.52,9632.94,-23.6968,236.638,-265.377,-792.676,10173.1,-421.312,1.26473,12.8254,-47.3206,-1266.49,-13191.7,3332.73,47.6905,89.306,-309.058,-3406.29,9495.91,-528.431,-2.92215,-1.22831,-78.2084,-5558.65,-7929.12,617.825,0.365642,89.1279,-128.572,10299.9,-1041.08,-98.1124,-14.6034,30.6446,-4.26313
4.6025,3833.81,-961.399,9166.57,14.1549,2.89323,-2.86201,9591.25,4828.56,9655.42,-24.9288,236.306,-265.951,-793.991,10194.6,-411.635,1.2233,12.7555,-47.2585,-1307.94,-13229.7,3282.21,47.8338,90.4813,-309.222,-3401.8,9507.37,-492.609,-3.07088,-2.08849,-78.3568,-5515.09,-7957.81,660.249,0.634733,90.8121,-127.401,10310.9,-1021.64,-104.076,-14.5649,30.3852,-4.27682
4.603,3821.37,-952.006,9179.34,13.9638,2.63653,-2.71887,9733.54,4847.6,9677.9,-26.1608,235.975,-266.525,-795.306,10216.0,-401.958,1.18188,12.6856,-47.1965,-1349.39,-13267.6,3231.69,47.9772,91.6567,-309.387,-3397.3,9518.83,-456.787,-3.2196,-2.94867,-78.5053,-5471.54,-7986.49,702.673,0.903823,92.4963,-126.23,10321.9,-1002.21,-110.039,-14.5263,30.1257,-4.29052
4.6035,3808.92,-942.614,9192.12,13.7727,2.37984,-2.57573,9875.82,4866.64,9700.38,-27.3928,235.644,-267.099,-796.622,10237.5,-392.281,1.14045,12.6157,-47.1345,-1390.84,-13305.5,3181.17,48.1205,92.8321,-309.551,-3392.81,9530.29,-420.966,-3.36833,-3.80885,-78.6538,-5427.99,-8015.18,745.097,1.17291,94.1805,-125.059,10332.9,-982.77,-116.003,-14.4877,29.8663,-4.30421
4.604,3796.48,-933.221,9204.9,13.5815,2.12314,-2.43258,10018.1,4885.68,9722.87,-28.6248,235.312,-267.674,-797.937,10258.9,-382.604,1.09902,12.5457,-47.0725,-1432.29,-13343.5,3130.64,48.2639,94.0075,-309.716,-3388.32,9541.74,-385.144,-3.51706,-4.66903,-78.8022,-5384.44,-8043.86,787.521,1.442,95.8646,-123.888,10343.9,-963.332,-121.966,-14.4491,29.6068,-4.31791
4.6045,3785.52,-925.959,9216.72,13.3838,1.8709,-2.29581,10152.2,4905.62,9742.56,-29.8365,234.984,-268.195,-796.545,10278.7,-373.765,1.06334,12.4759,-47.0112,-1472.39,-13384.7,3081.85,48.4139,95.1648,-309.888,-3383.2,9554.38,-351.968,-3.66109,-5.52952,-78.9416,-5339.28,-8072.3,826.73,1.75013,97.5853,-122.736,10352.8,-946.31,-127.351,-14.425,29.3588,-4.33679
4.605,3786.47,-935.746,9220.94,13.1335,1.6543,-2.21003,10221.3,4932.78,9739.99,-30.8863,234.679,-268.295,-773.498,10285.3,-371.629,1.07364,12.4064,-46.9552,-1501.74,-13451.9,3046.89,48.6175,96.1783,-310.126,-3373.08,9576.45,-339.955,-3.76755,-6.39243,-79.0087,-5281.21,-8098.82,840.211,2.37054,99.5979,-121.746,10344.8,-948.606,-128.102,-14.5169,29.2022,-4.39713
4.6055,3787.42,-945.532,9225.16,12.8831,1.43769,-2.12425,10290.4,4959.95,9737.41,-31.9362,234.374,-268.394,-750.45,10291.8,-369.492,1.08393,12.337,-46.8993,-1531.09,-13519.1,3011.94,48.8211,97.1918,-310.363,-3362.96,9598.52,-327.943,-3.87402,-7.25534,-79.0757,-5223.15,-8125.34,853.692,2.99094,101.61,-120.756,10336.8,-950.903,-128.853,-14.6087,29.0455,-4.45748
4.606,3788.37,-955.318,9229.38,12.6327,1.22109,-2.03847,10359.4,4987.11,9734.83,-32.986,234.07,-268.494,-727.403,10298.3,-367.356,1.09422,12.2676,-46.8433,-1560.43,-13586.3,2976.98,49.0247,98.2052,-310.6,-3352.85,9620.58,-315.93,-3.98048,-8.11826,-79.1428,-5165.08,-8151.85,867.173,3.61135,103.623,-119.766,10328.9,-953.199,-129.604,-14.7006,28.8889,-4.51783
4.6065,3789.32,-965.105,9233.6,12.3824,1.00449,-1.95268,10428.5,5014.27,9732.25,-34.0358,233.765,-268.594,-704.356,10304.8,-365.219,1.10451,12.1981,-46.7873,-1589.78,-13653.5,2942.03,49.2283,99.2187,-310.837,-3342.73,9642.65,-303.918,-4.08695,-8.98117,-79.2098,-5107.02,-8178.37,880.654,4.23175,105.636,-118.775,10320.9,-955.496,-130.355,-14.7925,28.7323,-4.57818
4.607,3790.27,-974.891,9237.81,12.132,0.787888,-1.8669,10497.5,5041.44,9729.68,-35.0856,233.46,-268.693,-681.308,10311.3,-363.083,1.1148,12.1287,-46.7314,-1619.13,-13720.7,2907.07,49.4319,100.232,-311.074,-3332.61,9664.72,-291.905,-4.19342,-9.84408,-79.2769,-5048.95,-8204.88,894.135,4.85216,107.648,-117.785,10312.9,-957.792,-131.106,-14.8844,28.5757,-4.63853
4.6075,3791.21,-984.678,9242.03,11.8816,0.571286,-1.78112,10566.6,5068.6,9727.1,-36.1354,233.156,-268.793,-658.261,10317.8,-360.947,1.1251,12.0592,-46.6754,-1648.47,-13787.9,2872.11,49.6355,101.246,-311.311,-3322.5,9686.79,-279.892,-4.29988,-10.707,-79.3439,-4990.89,-8231.4,907.616,5.47256,109.661,-116.795,10304.9,-960.089,-131.857,-14.9763,28.4191,-4.69887
4.608,3792.16,-994.464,9246.25,11.6312,0.354684,-1.69534,10635.6,5095.77,9724.52,-37.1852,232.851,-268.892,-635.214,10324.3,-358.81,1.13539,11.9898,-46.6195,-1677.82,-13855.1,2837.16,49.8391,102.259,-311.549,-3312.38,9708.86,-267.88,-4.40635,-11.5699,-79.411,-4932.82,-8257.92,921.097,6.09297,111.673,-115.805,10297.0,-962.385,-132.608,-15.0682,28.2625,-4.75922
4.6085,3793.11,-1004.25,9250.47,11.3809,0.138082,-1.60955,10704.7,5122.93,9721.95,-38.235,232.546,-268.992,-612.166,10330.9,-356.674,1.14568,11.9204,-46.5635,-1707.17,-13922.3,2802.2,50.0427,103.272,-311.786,-3302.26,9730.92,-255.867,-4.51282,-12.4328,-79.478,-4874.76,-8284.43,934.578,6.71337,113.686,-114.815,10289.0,-964.682,-133.36,-15.1601,28.1059,-4.81957
4.609,3792.97,-1004.38,9254.55,11.1428,-0.0711436,-1.52453,10758.5,5148.96,9718.49,-39.2866,232.149,-269.032,-598.263,10334.6,-352.339,1.16707,11.8333,-46.5136,-1738.75,-13991.0,2765.01,50.2704,104.212,-312.04,-3289.09,9752.44,-247.76,-4.60814,-13.2772,-79.5218,-4817.31,-8306.38,935.903,7.3817,115.737,-113.895,10281.8,-969.431,-137.125,-15.2531,27.9456,-4.89239
4.6095,3789.02,-970.714,9258.17,10.9476,-0.254552,-1.44216,10759.0,5171.0,9711.97,-40.3443,231.428,-268.866,-616.363,10328.6,-340.309,1.22733,11.6843,-46.4845,-1778.16,-14065.0,2720.01,50.5828,104.892,-312.357,-3265.2,9772.0,-253.321,-4.66445,-14.0567,-79.4838,-4762.02,-8312.32,894.685,8.21774,117.924,-113.224,10277.3,-982.763,-151.443,-15.3503,27.7727,-5.00884
4.61,3785.07,-937.047,9261.79,10.7525,-0.437961,-1.35979,10759.5,5193.04,9705.45,-41.402,230.708,-268.7,-634.464,10322.6,-328.279,1.28758,11.5354,-46.4555,-1817.56,-14139.0,2675.01,50.8953,105.573,-312.673,-3241.32,9791.57,-258.881,-4.72076,-14.8363,-79.4459,-4706.73,-8318.27,853.466,9.05378,120.11,-112.552,10272.9,-996.095,-165.761,-15.4474,27.5998,-5.1253
4.6105,3781.12,-903.38,9265.41,10.5573,-0.62137,-1.27742,10760.0,5215.08,9698.93,-42.4597,229.987,-268.534,-652.564,10316.6,-316.248,1.34783,11.3865,-46.4264,-1856.97,-14212.9,2630.02,51.2077,106.253,-312.989,-3217.44,9811.14,-264.442,-4.77707,-15.6158,-79.408,-4651.44,-8324.22,812.248,9.88983,122.297,-111.88,10268.4,-1009.43,-180.079,-15.5446,27.4269,-5.24176
4.611,3777.17,-869.713,9269.03,10.3622,-0.804779,-1.19505,10760.5,5237.12,9692.41,-43.5175,229.267,-268.368,-670.664,10310.7,-304.218,1.40809,11.2376,-46.3973,-1896.38,-14286.9,2585.02,51.5201,106.933,-313.305,-3193.56,9830.71,-270.003,-4.83337,-16.3954,-79.3701,-4596.15,-8330.16,771.03,10.7259,124.483,-111.209,10263.9,-1022.76,-194.396,-15.6417,27.254,-5.35822
4.6115,3773.21,-836.046,9272.64,10.167,-0.988188,-1.11268,10761.0,5259.16,9685.89,-44.5752,228.546,-268.202,-688.765,10304.7,-292.188,1.46834,11.0886,-46.3683,-1935.78,-14360.9,2540.02,51.8325,107.613,-313.621,-3169.68,9850.28,-275.564,-4.88968,-17.1749,-79.3322,-4540.86,-8336.11,729.811,11.5619,126.67,-110.537,10259.4,-1036.09,-208.714,-15.7389,27.0811,-5.47468
4.612,3769.26,-802.38,9276.26,9.97188,-1.1716,-1.03031,10761.5,5281.2,9679.37,-45.6329,227.826,-268.035,-706.865,10298.7,-280.158,1.52859,10.9397,-46.3392,-1975.19,-14434.8,2495.02,52.1449,108.294,-313.937,-3145.8,9869.85,-281.125,-4.94599,-17.9544,-79.2943,-4485.57,-8342.05,688.593,12.398,128.856,-109.865,10255.0,-1049.42,-223.032,-15.836,26.9081,-5.59114
4.6125,3765.31,-768.713,9279.88,9.77674,-1.35501,-0.947944,10762.0,5303.25,9672.85,-46.6906,227.105,-267.869,-724.965,10292.7,-268.128,1.58885,10.7908,-46.3102,-2014.6,-14508.8,2450.02,52.4573,108.974,-314.253,-3121.92,9889.42,-286.685,-5.0023,-18.734,-79.2563,-4430.28,-8348.0,647.374,13.234,131.043,-109.194,10250.5,-1062.76,-237.35,-15.9332,26.7352,-5.7076
4.613,3761.36,-735.046,9283.5,9.58159,-1.53841,-0.865575,10762.5,5325.29,9666.33,-47.7483,226.384,-267.703,-743.065,10286.7,-256.098,1.6491,10.6419,-46.2811,-2054.01,-14582.8,2405.02,52.7697,109.654,-314.57,-3098.03,9908.99,-292.246,-5.05861,-19.5135,-79.2184,-4374.99,-8353.94,606.156,14.07,133.23,-108.522,10246.0,-1076.09,-251.667,-16.0303,26.5623,-5.82405
4.6135,3762.12,-712.656,9285.24,9.37879,-1.74141,-0.758155,10742.4,5345.35,9658.11,-48.9014,225.586,-267.344,-757.82,10281.1,-249.861,1.71457,10.4827,-46.2838,-2091.96,-14653.5,2361.69,53.1926,110.223,-314.84,-3073.09,9925.46,-296.2,-5.07039,-20.2202,-79.2098,-4322.99,-8339.26,555.889,14.75,135.281,-107.899,10246.0,-1079.7,-260.401,-16.1252,26.3824,-5.91599
4.614,3772.29,-712.82,9283.21,9.16067,-1.98357,-0.600636,10681.2,5361.44,9646.5,-50.2452,224.63,-266.601,-765.884,10276.1,-255.212,1.79047,10.3032,-46.3498,-2127.0,-14717.9,2321.7,53.8363,110.567,-315.02,-3046.02,9935.75,-296.938,-4.9931,-20.7814,-79.2598,-4277.57,-8283.33,487.525,15.1176,137.064,-107.374,10255.1,-1063.85,-257.964,-16.2155,26.1884,-5.95888
4.6145,3782.47,-712.984,9281.18,8.94256,-2.22573,-0.443117,10620.0,5377.54,9634.88,-51.5889,223.674,-265.857,-773.948,10271.1,-260.562,1.86637,10.1236,-46.4159,-2162.04,-14782.2,2281.71,54.4801,110.911,-315.2,-3018.96,9946.04,-297.677,-4.91581,-21.3426,-79.3098,-4232.15,-8227.39,419.162,15.4853,138.846,-106.849,10264.1,-1048.01,-255.528,-16.3058,25.9945,-6.00177
4.615,3792.65,-713.148,9279.16,8.72445,-2.46789,-0.285598,10558.8,5393.64,9623.26,-52.9327,222.719,-265.113,-782.012,10266.2,-265.913,1.94227,9.94401,-46.482,-2197.08,-14846.5,2241.71,55.1238,111.256,-315.379,-2991.89,9956.33,-298.415,-4.83852,-21.9037,-79.3598,-4186.73,-8171.46,350.798,15.8529,140.628,-106.324,10273.1,-1032.16,-253.092,-16.3962,25.8005,-6.04466
4.6155,3802.82,-713.313,9277.13,8.50633,-2.71005,-0.128078,10497.7,5409.74,9611.65,-54.2765,221.763,-264.369,-790.076,10261.2,-271.263,2.01817,9.76443,-46.548,-2232.12,-14910.8,2201.72,55.7676,111.6,-315.559,-2964.82,9966.61,-299.153,-4.76123,-22.4649,-79.4098,-4141.31,-8115.53,282.434,16.2205,142.411,-105.799,10282.2,-1016.32,-250.656,-16.4865,25.6065,-6.08755
4.616,3813.0,-713.477,9275.1,8.28822,-2.95221,0.0294408,10436.5,5425.83,9600.03,-55.6202,220.807,-263.625,-798.14,10256.3,-276.614,2.09407,9.58485,-46.6141,-2267.16,-14975.1,2161.73,56.4114,111.945,-315.738,-2937.76,9976.9,-299.892,-4.68394,-23.0261,-79.4598,-4095.88,-8059.59,214.071,16.5882,144.193,-105.274,10291.2,-1000.48,-248.22,-16.5768,25.4126,-6.13045
4.6165,3823.18,-713.641,9273.07,8.07011,-3.19437,0.18696,10375.3,5441.93,9588.42,-56.964,219.852,-262.882,-806.204,10251.3,-281.965,2.16998,9.40527,-46.6801,-2302.2,-15039.4,2121.73,57.0551,112.289,-315.918,-2910.69,9987.19,-300.63,-4.60665,-23.5873,-79.5098,-4050.46,-8003.66,145.707,16.9558,145.975,-104.749,10300.2,-984.634,-245.784,-16.6671,25.2186,-6.17334
4.617,3833.36,-713.805,9271.05,7.85199,-3.43653,0.344479,10314.1,5458.03,9576.8,-58.3077,218.896,-262.138,-814.268,10246.3,-287.315,2.24588,9.22569,-46.7462,-2337.24,-15103.7,2081.74,57.6989,112.633,-316.098,-2883.62,9997.48,-301.369,-4.52936,-24.1484,-79.5598,-4005.04,-7947.72,77.3431,17.3235,147.758,-104.224,10309.3,-968.79,-243.348,-16.7575,25.0247,-6.21623
4.6175,3843.53,-713.969,9269.02,7.63388,-3.67869,0.501998,10252.9,5474.13,9565.19,-59.6515,217.94,-261.394,-822.332,10241.4,-292.666,2.32178,9.04611,-46.8123,-2372.28,-15168.0,2041.75,58.3427,112.978,-316.277,-2856.56,10007.8,-302.107,-4.45206,-24.7096,-79.6098,-3959.62,-7891.79,8.97947,17.6911,149.54,-103.699,10318.3,-952.946,-240.912,-16.8478,24.8307,-6.25912
4.618,3849.48,-720.385,9270.83,7.43083,-3.94638,0.65509,10196.3,5486.5,9563.79,-60.9478,216.954,-260.608,-823.816,10240.9,-289.551,2.41598,8.89926,-46.8316,-2422.07,-15221.2,2012.57,59.0519,113.119,-316.402,-2828.08,10022.1,-304.468,-4.37911,-25.2204,-79.6173,-3917.57,-7831.47,-57.7309,17.7874,151.083,-103.288,10310.7,-937.322,-240.757,-16.9321,24.6701,-6.25564
4.6185,3850.14,-734.617,9277.45,7.24662,-4.24599,0.802646,10145.4,5494.23,9575.15,-62.1846,215.929,-259.771,-817.076,10246.1,-275.853,2.53305,8.79332,-46.7925,-2490.29,-15260.6,1996.91,59.8431,113.005,-316.458,-2797.84,10041.6,-308.857,-4.31157,-25.6683,-79.5716,-3879.73,-7765.67,-122.374,17.5445,152.325,-103.02,10282.1,-921.973,-243.454,-17.0088,24.5513,-6.1942
4.619,3850.81,-748.848,9284.07,7.0624,-4.5456,0.950202,10094.4,5501.96,9586.51,-63.4214,214.904,-258.933,-810.335,10251.4,-262.156,2.65013,8.68738,-46.7535,-2558.51,-15300.0,1981.25,60.6342,112.891,-316.514,-2767.6,10061.1,-313.246,-4.24404,-26.1162,-79.5259,-3841.9,-7699.88,-187.018,17.3016,153.568,-102.752,10253.6,-906.623,-246.151,-17.0856,24.4325,-6.13276
4.6195,3851.47,-763.079,9290.69,6.87818,-4.8452,1.09776,10043.5,5509.69,9597.87,-64.6582,213.879,-258.095,-803.594,10256.6,-248.458,2.7672,8.58144,-46.7144,-2626.73,-15339.4,1965.59,61.4253,112.778,-316.571,-2737.36,10080.5,-317.635,-4.1765,-26.5641,-79.4802,-3804.06,-7634.08,-251.662,17.0586,154.811,-102.484,10225.1,-891.274,-248.848,-17.1624,24.3137,-6.07132
4.62,3852.14,-777.31,9297.3,6.69396,-5.14481,1.24531,9992.61,5517.42,9609.23,-65.8951,212.854,-257.257,-796.854,10261.8,-234.761,2.88428,8.4755,-46.6753,-2694.95,-15378.8,1949.93,62.2165,112.664,-316.627,-2707.12,10100.0,-322.024,-4.10896,-27.012,-79.4345,-3766.23,-7568.28,-316.305,16.8157,156.054,-102.216,10196.6,-875.925,-251.546,-17.2391,24.1949,-6.00988
4.6205,3852.8,-791.542,9303.92,6.50975,-5.44442,1.39287,9941.69,5525.15,9620.59,-67.1319,211.829,-256.419,-790.113,10267.0,-221.063,3.00136,8.36956,-46.6362,-2763.17,-15418.2,1934.27,63.0076,112.55,-316.683,-2676.89,10119.5,-326.413,-4.04143,-27.4599,-79.3888,-3728.39,-7502.48,-380.949,16.5728,157.297,-101.948,10168.1,-860.575,-254.243,-17.3159,24.076,-5.94844
4.621,3853.46,-805.773,9310.54,6.32553,-5.74403,1.54043,9890.78,5532.88,9631.95,-68.3687,210.804,-255.581,-783.372,10272.2,-207.366,3.11843,8.26362,-46.5972,-2831.39,-15457.6,1918.61,63.7988,112.437,-316.739,-2646.65,10138.9,-330.802,-3.97389,-27.9078,-79.3431,-3690.56,-7436.68,-445.593,16.3299,158.539,-101.679,10139.6,-845.226,-256.94,-17.3926,23.9572,-5.887
4.6215,3854.13,-820.004,9317.15,6.14131,-6.04363,1.68798,9839.86,5540.61,9643.31,-69.6055,209.779,-254.743,-776.631,10277.4,-193.668,3.23551,8.15768,-46.5581,-2899.61,-15497.0,1902.94,64.5899,112.323,-316.795,-2616.41,10158.4,-335.19,-3.90635,-28.3557,-79.2974,-3652.72,-7370.89,-510.236,16.0869,159.782,-101.411,10111.1,-829.876,-259.637,-17.4694,23.8384,-5.82556
4.622,3854.79,-834.236,9323.77,5.95709,-6.34324,1.83554,9788.95,5548.34,9654.68,-70.8424,208.754,-253.906,-769.891,10282.6,-179.971,3.35258,8.05174,-46.519,-2967.83,-15536.4,1887.28,65.3811,112.209,-316.851,-2586.17,10177.9,-339.579,-3.83882,-28.8036,-79.2517,-3614.88,-7305.09,-574.88,15.844,161.025,-101.143,10082.6,-814.527,-262.334,-17.5462,23.7196,-5.76412
4.6225,3851.75,-843.779,9331.77,5.76807,-6.58606,1.97143,9754.45,5539.39,9683.4,-71.9716,207.902,-253.021,-766.25,10296.3,-163.919,3.44352,7.90486,-46.5319,-3049.76,-15572.3,1875.62,66.0033,111.909,-316.927,-2545.05,10189.5,-346.553,-3.82333,-29.164,-79.178,-3580.77,-7240.21,-638.847,15.3109,161.997,-100.944,10068.2,-788.927,-265.445,-17.6615,23.5539,-5.74765
4.623,3845.74,-849.573,9340.87,5.57521,-6.78344,2.098,9733.09,5517.08,9726.02,-73.0148,207.189,-252.099,-765.089,10316.8,-145.982,3.51353,7.72523,-46.5863,-3142.65,-15605.3,1867.15,66.4903,111.458,-317.017,-2495.21,10195.0,-355.594,-3.84947,-29.4544,-79.0821,-3549.62,-7176.07,-702.274,14.5456,162.752,-100.8,10065.3,-755.128,-268.888,-17.8076,23.3508,-5.76715
4.6235,3839.74,-855.367,9349.98,5.38235,-6.98082,2.22456,9711.74,5494.78,9768.65,-74.058,206.477,-251.176,-763.927,10337.4,-128.045,3.58355,7.54559,-46.6407,-3235.54,-15638.3,1858.68,66.9774,111.008,-317.107,-2445.38,10200.5,-364.635,-3.87561,-29.7448,-78.9861,-3518.48,-7111.93,-765.701,13.7803,163.508,-100.656,10062.3,-721.329,-272.33,-17.9538,23.1477,-5.78666
4.624,3833.73,-861.161,9359.08,5.1895,-7.17821,2.35113,9690.38,5472.48,9811.27,-75.1012,205.764,-250.254,-762.766,10357.9,-110.109,3.65357,7.36596,-46.6951,-3328.43,-15671.3,1850.22,67.4644,110.557,-317.197,-2395.55,10205.9,-373.676,-3.90176,-30.0352,-78.8901,-3487.34,-7047.78,-829.127,13.015,164.264,-100.512,10059.3,-687.529,-275.772,-18.1,22.9446,-5.80616
4.6245,3827.72,-866.955,9368.18,4.99664,-7.37559,2.47769,9669.02,5450.17,9853.89,-76.1444,205.052,-249.332,-761.605,10378.4,-92.1721,3.72359,7.18633,-46.7494,-3421.32,-15704.3,1841.75,67.9515,110.107,-317.288,-2345.72,10211.4,-382.717,-3.9279,-30.3256,-78.7941,-3456.19,-6983.64,-892.554,12.2497,165.019,-100.368,10056.4,-653.73,-279.215,-18.2461,22.7415,-5.82566
4.625,3821.72,-872.749,9377.29,4.80378,-7.57297,2.60426,9647.67,5427.87,9896.51,-77.1876,204.339,-248.41,-760.443,10398.9,-74.2356,3.79361,7.0067,-46.8038,-3514.21,-15737.3,1833.28,68.4386,109.656,-317.378,-2295.89,10216.8,-391.759,-3.95404,-30.616,-78.6981,-3425.05,-6919.5,-955.98,11.4844,165.775,-100.224,10053.4,-619.93,-282.657,-18.3923,22.5384,-5.84517
4.6255,3815.71,-878.543,9386.39,4.61092,-7.77036,2.73082,9626.31,5405.57,9939.13,-78.2308,203.626,-247.488,-759.282,10419.5,-56.299,3.86363,6.82706,-46.8582,-3607.11,-15770.4,1824.81,68.9256,109.206,-317.468,-2246.06,10222.3,-400.8,-3.98018,-30.9065,-78.6021,-3393.91,-6855.36,-1019.41,10.7192,166.53,-100.08,10050.4,-586.131,-286.1,-18.5385,22.3353,-5.86467
4.626,3809.7,-884.337,9395.5,4.41806,-7.96774,2.85739,9604.95,5383.27,9981.75,-79.2739,202.914,-246.566,-758.121,10440.0,-38.3624,3.93365,6.64743,-46.9126,-3700.0,-15803.4,1816.35,69.4127,108.755,-317.559,-2196.22,10227.8,-409.841,-4.00633,-31.1969,-78.5061,-3362.76,-6791.21,-1082.83,9.95387,167.286,-99.9354,10047.4,-552.331,-289.542,-18.6846,22.1322,-5.88418
4.6265,3803.7,-890.13,9404.6,4.2252,-8.16513,2.98395,9583.6,5360.96,10024.4,-80.3171,202.201,-245.643,-756.96,10460.5,-20.4258,4.00367,6.4678,-46.967,-3792.89,-15836.4,1807.88,69.8998,108.305,-317.649,-2146.39,10233.2,-418.882,-4.03247,-31.4873,-78.4101,-3331.62,-6727.07,-1146.26,9.18858,168.041,-99.7913,10044.5,-518.532,-292.985,-18.8308,21.9291,-5.90368
4.627,3793.67,-886.962,9416.48,4.02301,-8.44093,3.07947,9598.93,5335.78,10072.6,-81.157,201.545,-244.766,-752.219,10460.7,-23.7109,4.0819,6.27418,-46.9988,-3888.61,-15858.5,1787.86,70.2105,107.708,-317.789,-2098.63,10247.6,-429.714,-4.09626,-31.6922,-78.3713,-3298.82,-6660.01,-1189.85,8.05028,168.386,-99.523,10031.2,-505.447,-281.227,-18.9955,21.6532,-5.86916
4.6275,3781.62,-879.313,9429.74,3.81616,-8.75595,3.15947,9632.6,5309.15,10123.6,-81.8951,200.917,-243.91,-745.689,10450.8,-37.6069,4.16423,6.07358,-47.0194,-3985.74,-15875.1,1762.06,70.433,107.039,-317.953,-2051.91,10266.4,-441.44,-4.17887,-31.8544,-78.3612,-3265.2,-6591.49,-1223.51,6.72547,168.524,-99.1925,10012.8,-502.721,-261.868,-19.1696,21.3408,-5.80763
4.628,3769.57,-871.664,9443.0,3.6093,-9.07097,3.23947,9666.27,5282.53,10174.6,-82.6333,200.288,-243.054,-739.159,10440.9,-51.5029,4.24657,5.87297,-47.0399,-4082.87,-15891.7,1736.27,70.6556,106.369,-318.117,-2005.19,10285.2,-453.167,-4.26148,-32.0166,-78.351,-3231.57,-6522.97,-1257.18,5.40066,168.663,-98.8621,9994.41,-499.994,-242.51,-19.3436,21.0284,-5.74609
4.6285,3757.53,-864.015,9456.26,3.40245,-9.38598,3.31946,9699.94,5255.9,10225.7,-83.3715,199.66,-242.198,-732.629,10431.0,-65.3988,4.32891,5.67236,-47.0605,-4180.0,-15908.3,1710.47,70.8781,105.7,-318.281,-1958.47,10304.0,-464.894,-4.34409,-32.1788,-78.3408,-3197.94,-6454.44,-1290.85,4.07586,168.802,-98.5316,9976.01,-497.267,-223.152,-19.5176,20.716,-5.68456
4.629,3745.48,-856.366,9469.52,3.1956,-9.701,3.39946,9733.62,5229.27,10276.7,-84.1096,199.032,-241.343,-726.098,10421.1,-79.2948,4.41124,5.47175,-47.081,-4277.13,-15924.9,1684.67,71.1006,105.03,-318.445,-1911.74,10322.8,-476.621,-4.42671,-32.341,-78.3307,-3164.31,-6385.92,-1324.51,2.75105,168.941,-98.2011,9957.61,-494.54,-203.794,-19.6917,20.4036,-5.62303
4.6295,3733.44,-848.716,9482.78,2.98874,-10.016,3.47946,9767.29,5202.65,10327.7,-84.8478,198.403,-240.487,-719.568,10411.1,-93.1908,4.49358,5.27115,-47.1016,-4374.26,-15941.5,1658.88,71.3232,104.36,-318.609,-1865.02,10341.6,-488.348,-4.50932,-32.5032,-78.3205,-3130.69,-6317.4,-1358.18,1.42624,169.079,-97.8706,9939.21,-491.813,-184.436,-19.8657,20.0912,-5.56149
4.63,3721.39,-841.067,9496.04,2.78189,-10.331,3.55945,9800.96,5176.02,10378.8,-85.586,197.775,-239.631,-713.038,10401.2,-107.087,4.57592,5.07054,-47.1221,-4471.39,-15958.1,1633.08,71.5457,103.691,-318.773,-1818.3,10360.4,-500.074,-4.59193,-32.6654,-78.3103,-3097.06,-6248.88,-1391.84,0.101431,169.218,-97.5402,9920.81,-489.086,-165.078,-20.0397,19.7788,-5.49996
4.6305,3709.34,-833.418,9509.3,2.57503,-10.6461,3.63945,9834.64,5149.4,10429.8,-86.3242,197.147,-238.775,-706.508,10391.3,-120.983,4.65825,4.86993,-47.1427,-4568.52,-15974.7,1607.29,71.7683,103.021,-318.938,-1771.58,10379.2,-511.801,-4.67454,-32.8276,-78.3002,-3063.43,-6180.35,-1425.51,-1.22338,169.357,-97.2097,9902.42,-486.359,-145.72,-20.2138,19.4664,-5.43843
4.631,3697.3,-825.769,9522.56,2.36818,-10.9611,3.71945,9868.31,5122.77,10480.8,-87.0623,196.519,-237.92,-699.978,10381.4,-134.879,4.74059,4.66932,-47.1632,-4665.65,-15991.4,1581.49,71.9908,102.351,-319.102,-1724.86,10398.0,-523.528,-4.75715,-32.9898,-78.29,-3029.81,-6111.83,-1459.18,-2.54819,169.496,-96.8792,9884.02,-483.632,-126.362,-20.3878,19.154,-5.37689
4.6315,3688.44,-819.667,9519.52,2.24591,-11.2643,3.88194,9939.35,5119.38,10534.2,-88.2623,196.052,-236.838,-693.921,10400.5,-131.234,4.75445,4.52237,-47.1625,-4743.32,-16004.0,1525.6,72.093,101.598,-319.298,-1687.42,10415.2,-539.638,-4.85444,-33.1192,-78.2931,-2990.31,-6084.04,-1461.32,-4.08098,169.061,-96.3456,9869.52,-465.743,-114.344,-20.5778,19.0307,-5.34203
4.632,3680.49,-814.006,9511.82,2.14781,-11.5642,4.06801,10021.1,5122.64,10588.2,-89.5942,195.631,-235.693,-688.0,10427.9,-122.578,4.74875,4.39074,-47.1557,-4815.43,-16015.5,1461.11,72.1608,100.821,-319.504,-1652.65,10431.9,-557.001,-4.95593,-33.2393,-78.3001,-2949.13,-6067.88,-1454.46,-5.6732,168.461,-95.754,9856.13,-443.521,-104.424,-20.7724,18.9616,-5.31479
4.6325,3672.55,-808.346,9504.13,2.04971,-11.8642,4.25407,10102.8,5125.89,10642.2,-90.9261,195.211,-234.547,-682.079,10455.3,-113.922,4.74304,4.25912,-47.1489,-4887.55,-16027.0,1396.61,72.2286,100.044,-319.709,-1617.87,10448.6,-574.364,-5.05741,-33.3593,-78.3071,-2907.96,-6051.73,-1447.59,-7.26541,167.862,-95.1623,9842.74,-421.3,-94.5034,-20.9669,18.8924,-5.28755
4.633,3664.6,-802.685,9496.44,1.95161,-12.1641,4.44014,10184.5,5129.14,10696.3,-92.258,194.79,-233.401,-676.158,10482.8,-105.267,4.73734,4.12749,-47.1421,-4959.66,-16038.5,1332.12,72.2964,99.267,-319.915,-1583.1,10465.3,-591.726,-5.1589,-33.4793,-78.3141,-2866.78,-6035.57,-1440.73,-8.85763,167.263,-94.5706,9829.35,-399.078,-84.5832,-21.1615,18.8232,-5.26031
4.6335,3656.65,-797.025,9488.74,1.8535,-12.464,4.6262,10266.2,5132.39,10750.3,-93.5899,194.37,-232.256,-670.237,10510.2,-96.6106,4.73163,3.99587,-47.1354,-5031.77,-16050.0,1267.63,72.3642,98.4899,-320.12,-1548.32,10482.0,-609.089,-5.26038,-33.5993,-78.321,-2825.61,-6019.42,-1433.87,-10.4499,166.664,-93.979,9815.97,-376.856,-74.6629,-21.356,18.754,-5.23307
4.634,3648.71,-791.364,9481.04,1.7554,-12.7639,4.81227,10347.9,5135.64,10804.3,-94.9218,193.949,-231.11,-664.316,10537.6,-87.9547,4.72592,3.86424,-47.1286,-5103.88,-16061.5,1203.14,72.432,97.7128,-320.326,-1513.54,10498.7,-626.452,-5.36187,-33.7194,-78.328,-2784.43,-6003.26,-1427.0,-12.0421,166.065,-93.3873,9802.58,-354.635,-64.7426,-21.5506,18.6849,-5.20583
4.6345,3640.76,-785.704,9473.35,1.6573,-13.0638,4.99833,10429.6,5138.89,10858.4,-96.2536,193.529,-229.964,-658.395,10565.0,-79.2988,4.72022,3.73262,-47.1218,-5175.99,-16073.0,1138.65,72.4998,96.9357,-320.531,-1478.77,10515.4,-643.814,-5.46335,-33.8394,-78.335,-2743.26,-5987.1,-1420.14,-13.6343,165.466,-92.7957,9789.19,-332.413,-54.8223,-21.7452,18.6157,-5.17859
4.635,3632.81,-780.043,9465.65,1.5592,-13.3637,5.1844,10511.4,5142.15,10912.4,-97.5855,193.108,-228.818,-652.473,10592.5,-70.6429,4.71451,3.60099,-47.115,-5248.1,-16084.6,1074.16,72.5676,96.1586,-320.737,-1443.99,10532.1,-661.177,-5.56484,-33.9594,-78.3419,-2702.08,-5970.95,-1413.28,-15.2265,164.867,-92.204,9775.8,-310.191,-44.9021,-21.9397,18.5465,-5.15135
4.6355,3624.87,-774.383,9457.96,1.4611,-13.6636,5.37046,10593.1,5145.4,10966.4,-98.9174,192.688,-227.673,-646.552,10619.9,-61.987,4.70881,3.46937,-47.1082,-5320.21,-16096.1,1009.67,72.6354,95.3815,-320.942,-1409.21,10548.8,-678.539,-5.66632,-34.0794,-78.3489,-2660.91,-5954.79,-1406.42,-16.8187,164.268,-91.6124,9762.42,-287.97,-34.9818,-22.1343,18.4773,-5.12411
4.636,3639.07,-767.099,9466.19,1.3527,-13.9793,5.48822,10713.2,5235.08,11008.6,-100.619,192.736,-226.135,-643.587,10633.0,-76.993,4.75097,3.35439,-47.1118,-5364.93,-16129.7,941.181,72.7376,94.6417,-321.206,-1352.85,10544.6,-699.145,-5.73678,-34.1622,-78.2835,-2621.1,-5996.62,-1355.97,-17.9038,163.054,-90.823,9765.62,-280.103,-34.7314,-22.3354,18.2567,-5.10993
4.6365,3656.03,-759.611,9476.4,1.24302,-14.2969,5.59744,10838.1,5335.57,11049.3,-102.366,192.844,-224.547,-640.991,10644.4,-94.9566,4.79911,3.24149,-47.1167,-5406.21,-16166.1,872.198,72.844,93.9066,-321.477,-1293.79,10537.8,-720.156,-5.80337,-34.2404,-78.2091,-2581.47,-6045.7,-1300.07,-18.9254,161.763,-90.0089,9770.9,-274.03,-35.6898,-22.5373,18.0172,-5.09739
4.637,3673.0,-752.124,9486.62,1.13334,-14.6145,5.70667,10963.0,5436.06,11090.0,-104.114,192.951,-222.96,-638.395,10655.7,-112.92,4.84725,3.12859,-47.1216,-5447.5,-16202.6,803.214,72.9505,93.1715,-321.749,-1234.73,10531.0,-741.167,-5.86996,-34.3186,-78.1346,-2541.83,-6094.77,-1244.18,-19.947,160.472,-89.1949,9776.18,-267.957,-36.6482,-22.7392,17.7776,-5.08484
4.6375,3689.97,-744.636,9496.83,1.02366,-14.9321,5.81589,11087.9,5536.55,11130.8,-105.861,193.059,-221.373,-635.799,10667.1,-130.884,4.89538,3.01569,-47.1266,-5488.79,-16239.0,734.23,73.0569,92.4364,-322.02,-1175.67,10524.1,-762.179,-5.93654,-34.3967,-78.0602,-2502.2,-6143.85,-1188.28,-20.9687,159.181,-88.3808,9781.46,-261.884,-37.6066,-22.9411,17.5381,-5.07229
4.638,3706.94,-737.149,9507.05,0.913978,-15.2497,5.92511,11212.7,5637.04,11171.5,-107.608,193.167,-219.786,-633.203,10678.4,-148.848,4.94352,2.90279,-47.1315,-5530.08,-16275.4,665.247,73.1634,91.7013,-322.291,-1116.61,10517.3,-783.19,-6.00313,-34.4749,-77.9857,-2462.56,-6192.93,-1132.39,-21.9903,157.89,-87.5668,9786.74,-255.812,-38.565,-23.143,17.2985,-5.05975
4.6385,3723.91,-729.661,9517.26,0.804297,-15.5673,6.03433,11337.6,5737.53,11212.2,-109.356,193.274,-218.199,-630.607,10689.8,-166.811,4.99166,2.7899,-47.1364,-5571.37,-16311.8,596.263,73.2699,90.9662,-322.562,-1057.55,10510.5,-804.201,-6.06971,-34.553,-77.9113,-2422.93,-6242.0,-1076.49,-23.012,156.599,-86.7527,9792.02,-249.739,-39.5234,-23.3449,17.059,-5.0472
4.639,3740.88,-722.174,9527.48,0.694616,-15.8849,6.14355,11462.5,5838.02,11252.9,-111.103,193.382,-216.612,-628.011,10701.1,-184.775,5.0398,2.677,-47.1413,-5612.66,-16348.2,527.279,73.3763,90.2311,-322.833,-998.491,10503.6,-825.212,-6.1363,-34.6312,-77.8368,-2383.29,-6291.08,-1020.6,-24.0336,155.308,-85.9386,9797.3,-243.666,-40.4818,-23.5468,16.8195,-5.03465
4.6395,3757.85,-714.686,9537.69,0.584935,-16.2025,6.25277,11587.4,5938.5,11293.6,-112.851,193.489,-215.025,-625.415,10712.5,-202.739,5.08794,2.5641,-47.1462,-5653.95,-16384.6,458.296,73.4828,89.4959,-323.105,-939.431,10496.8,-846.223,-6.20288,-34.7093,-77.7624,-2343.66,-6340.15,-964.7,-25.0552,154.017,-85.1246,9802.58,-237.593,-41.4402,-23.7487,16.5799,-5.02211
4.64,3774.82,-707.199,9547.91,0.475254,-16.5201,6.36199,11712.3,6038.99,11334.3,-114.598,193.597,-213.437,-622.819,10723.8,-220.702,5.13608,2.4512,-47.1511,-5695.24,-16421.1,389.312,73.5893,88.7608,-323.376,-880.371,10490.0,-867.234,-6.26947,-34.7875,-77.688,-2304.02,-6389.23,-908.805,-26.0769,152.726,-84.3105,9807.86,-231.521,-42.3986,-23.9506,16.3404,-5.00956
4.6405,3768.99,-728.555,9531.39,0.44347,-16.9115,6.45277,11876.0,6164.14,11392.6,-115.934,194.289,-211.903,-623.442,10732.3,-236.468,5.17456,2.48404,-47.2913,-5750.39,-16455.3,328.493,73.661,88.0492,-323.522,-842.505,10482.7,-894.869,-6.21903,-34.7556,-77.6337,-2267.11,-6473.98,-828.276,-26.0216,150.818,-83.4437,9788.74,-213.902,-40.829,-24.1665,16.1763,-5.02303
4.641,3763.17,-749.912,9514.88,0.411687,-17.3028,6.54355,12039.8,6289.29,11450.9,-117.27,194.981,-210.369,-624.065,10740.7,-252.234,5.21304,2.51688,-47.4315,-5805.54,-16489.6,267.674,73.7327,87.3375,-323.667,-804.64,10475.4,-922.504,-6.1686,-34.7237,-77.5795,-2230.2,-6558.73,-747.746,-25.9663,148.911,-82.5769,9769.62,-196.283,-39.2593,-24.3825,16.0121,-5.0365
4.6415,3757.35,-771.269,9498.37,0.379904,-17.6942,6.63433,12203.5,6414.44,11509.2,-118.606,195.673,-208.835,-624.687,10749.2,-267.999,5.25152,2.54972,-47.5717,-5860.69,-16523.8,206.855,73.8044,86.6258,-323.813,-766.774,10468.1,-950.139,-6.11816,-34.6918,-77.5253,-2193.29,-6643.48,-667.217,-25.9111,147.003,-81.7101,9750.49,-178.664,-37.6896,-24.5984,15.848,-5.04997
4.642,3751.52,-792.625,9481.85,0.348121,-18.0855,6.72511,12367.2,6539.59,11567.5,-119.941,196.365,-207.301,-625.31,10757.6,-283.765,5.29,2.58256,-47.7119,-5915.84,-16558.1,146.036,73.8761,85.9142,-323.959,-728.909,10460.9,-977.774,-6.06772,-34.66,-77.4711,-2156.38,-6728.23,-586.687,-25.8558,145.096,-80.8433,9731.37,-161.045,-36.12,-24.8143,15.6839,-5.06345
4.6425,3745.7,-813.982,9465.34,0.316338,-18.4768,6.81589,12530.9,6664.74,11625.7,-121.277,197.057,-205.767,-625.933,10766.1,-299.53,5.32848,2.6154,-47.8521,-5970.99,-16592.3,85.2169,73.9478,85.2025,-324.105,-691.043,10453.6,-1005.41,-6.01728,-34.6281,-77.4168,-2119.48,-6812.98,-506.158,-25.8005,143.188,-79.9765,9712.24,-143.426,-34.5503,-25.0303,15.5198,-5.07692
4.643,3739.88,-835.339,9448.82,0.284554,-18.8682,6.90666,12694.6,6789.89,11684.0,-122.613,197.749,-204.233,-626.556,10774.5,-315.296,5.36696,2.64824,-47.9922,-6026.14,-16626.6,24.3979,74.0195,84.4909,-324.25,-653.178,10446.3,-1033.04,-5.96685,-34.5962,-77.3626,-2082.57,-6897.73,-425.628,-25.7452,141.281,-79.1097,9693.12,-125.807,-32.9807,-25.2462,15.3557,-5.09039
4.6435,3734.06,-856.695,9432.31,0.252771,-19.2595,6.99744,12858.3,6915.04,11742.3,-123.949,198.441,-202.699,-627.178,10783.0,-331.062,5.40543,2.68108,-48.1324,-6081.29,-16660.8,-36.4211,74.0912,83.7792,-324.396,-615.312,10439.0,-1060.68,-5.91641,-34.5643,-77.3084,-2045.66,-6982.48,-345.099,-25.69,139.374,-78.243,9674.0,-108.189,-31.411,-25.4621,15.1916,-5.10386
4.644,3728.23,-878.052,9415.79,0.220988,-19.6509,7.08822,13022.1,7040.19,11800.6,-125.284,199.133,-201.165,-627.801,10791.4,-346.827,5.44391,2.71392,-48.2726,-6136.44,-16695.1,-97.2401,74.1629,83.0675,-324.542,-577.446,10431.8,-1088.31,-5.86597,-34.5324,-77.2541,-2008.75,-7067.23,-264.57,-25.6347,137.466,-77.3762,9654.87,-90.5697,-29.8413,-25.6781,15.0275,-5.11733
4.6445,3725.12,-898.412,9405.21,0.191136,-20.0359,7.19446,13188.9,7163.57,11857.0,-126.576,199.901,-199.699,-627.23,10799.3,-358.873,5.49128,2.74195,-48.4007,-6193.43,-16728.2,-158.785,74.2195,82.3691,-324.683,-540.959,10424.5,-1115.34,-5.80985,-34.4792,-77.1986,-1972.91,-7155.32,-183.765,-25.4387,135.544,-76.5098,9636.53,-74.516,-28.2847,-25.8953,14.8805,-5.12943
4.645,3743.65,-910.805,9442.13,0.17673,-20.3711,7.4244,13381.1,7272.82,11897.9,-127.51,201.275,-198.769,-617.104,10802.0,-341.166,5.60972,2.73148,-48.4321,-6265.19,-16752.4,-226.141,74.1554,81.7769,-324.791,-515.497,10416.9,-1137.53,-5.70819,-34.2554,-77.1328,-1945.62,-7270.16,-100.757,-24.1166,133.505,-75.6464,9624.41,-70.9839,-26.8321,-26.1234,14.8705,-5.13059
4.6455,3762.18,-923.198,9479.05,0.162324,-20.7062,7.65433,13573.3,7382.07,11938.9,-128.444,202.648,-197.84,-606.978,10804.8,-323.459,5.72815,2.721,-48.4636,-6336.95,-16776.7,-293.496,74.0913,81.1846,-324.899,-490.036,10409.4,-1159.72,-5.60654,-34.0316,-77.067,-1918.33,-7385.01,-17.7499,-22.7945,131.465,-74.7831,9612.29,-67.4518,-25.3794,-26.3514,14.8605,-5.13174
4.646,3780.72,-935.59,9515.97,0.147917,-21.0413,7.88427,13765.4,7491.32,11979.9,-129.378,204.022,-196.911,-596.852,10807.6,-305.751,5.84659,2.71052,-48.495,-6408.71,-16800.9,-360.852,74.0272,80.5923,-325.007,-464.574,10401.8,-1181.9,-5.50489,-33.8077,-77.0012,-1891.04,-7499.85,65.2576,-21.4724,129.426,-73.9198,9600.18,-63.9196,-23.9268,-26.5794,14.8505,-5.13289
4.6465,3799.25,-947.983,9552.88,0.133511,-21.3765,8.1142,13957.6,7600.57,12020.8,-130.312,205.395,-195.981,-586.727,10810.4,-288.044,5.96503,2.70005,-48.5264,-6480.47,-16825.2,-428.207,73.9631,80.0001,-325.115,-439.112,10394.3,-1204.09,-5.40324,-33.5839,-76.9354,-1863.75,-7614.7,148.265,-20.1502,127.387,-73.0565,9588.06,-60.3875,-22.4742,-26.8075,14.8404,-5.13405
4.647,3817.78,-960.375,9589.8,0.119105,-21.7116,8.34414,14149.7,7709.82,12061.8,-131.246,206.769,-195.052,-576.601,10813.2,-270.337,6.08347,2.68957,-48.5578,-6552.22,-16849.4,-495.563,73.8989,79.4078,-325.223,-413.651,10386.8,-1226.28,-5.30159,-33.3601,-76.8696,-1836.46,-7729.54,231.273,-18.8281,125.347,-72.1932,9575.95,-56.8554,-21.0216,-27.0355,14.8304,-5.1352
4.6475,3836.32,-972.768,9626.72,0.104699,-22.0467,8.57407,14341.9,7819.07,12102.8,-132.18,208.143,-194.123,-566.475,10816.0,-252.629,6.20191,2.6791,-48.5893,-6623.98,-16873.7,-562.918,73.8348,78.8156,-325.331,-388.189,10379.2,-1248.46,-5.19993,-33.1363,-76.8039,-1809.17,-7844.39,314.28,-17.506,123.308,-71.3298,9563.83,-53.3233,-19.569,-27.2635,14.8204,-5.13635
4.648,3854.85,-985.161,9663.64,0.090293,-22.3819,8.80401,14534.1,7928.32,12143.8,-133.114,209.516,-193.193,-556.349,10818.8,-234.922,6.32035,2.66862,-48.6207,-6695.74,-16897.9,-630.273,73.7707,78.2233,-325.439,-362.727,10371.7,-1270.65,-5.09828,-32.9124,-76.7381,-1781.88,-7959.23,397.288,-16.1839,121.269,-70.4665,9551.71,-49.7911,-18.1164,-27.4916,14.8104,-5.13751
4.6485,3873.38,-997.553,9700.55,0.0758869,-22.717,9.03395,14726.2,8037.57,12184.7,-134.048,210.89,-192.264,-546.223,10821.5,-217.214,6.43879,2.65814,-48.6521,-6767.5,-16922.1,-697.629,73.7066,77.631,-325.547,-337.266,10364.1,-1292.84,-4.99663,-32.6886,-76.6723,-1754.59,-8074.08,480.295,-14.8618,119.229,-69.6032,9539.6,-46.259,-16.6637,-27.7196,14.8004,-5.13866
4.649,3885.93,-1009.62,9729.76,0.0735572,-23.0695,9.22331,14919.0,8134.44,12215.4,-135.038,212.408,-191.401,-533.45,10824.7,-206.475,6.55596,2.6353,-48.723,-6842.26,-16946.2,-758.339,73.6025,77.0703,-325.678,-307.645,10353.1,-1312.77,-4.89878,-32.4242,-76.608,-1730.97,-8183.63,557.046,-13.3223,117.281,-68.7777,9525.98,-42.1037,-12.8193,-27.9428,14.8009,-5.12321
4.6495,3877.55,-1020.53,9731.98,0.113495,-23.4829,9.27066,15114.0,8187.96,12210.0,-136.225,214.435,-190.771,-511.409,10829.4,-220.125,6.66869,2.56916,-48.9318,-6927.55,-16969.6,-795.79,73.3581,76.6201,-325.889,-263.47,10329.9,-1324.8,-4.81426,-32.0179,-76.549,-1720.18,-8274.68,611.901,-11.0219,115.651,-68.0844,9507.1,-35.7673,-0.60365,-28.149,14.8387,-5.04966
4.65,3869.16,-1031.44,9734.2,0.153432,-23.8963,9.31801,15309.1,8241.48,12204.5,-137.413,216.462,-190.141,-489.367,10834.0,-233.774,6.78142,2.50302,-49.1406,-7012.84,-16993.0,-833.241,73.1137,76.1698,-326.101,-219.295,10306.7,-1336.84,-4.72973,-31.6115,-76.4901,-1709.39,-8365.73,666.755,-8.72143,114.022,-67.3911,9488.22,-29.4309,11.612,-28.3552,14.8764,-4.97611
4.6505,3860.77,-1042.35,9736.42,0.193369,-24.3097,9.36537,15504.1,8295.0,12199.1,-138.6,218.488,-189.511,-467.326,10838.6,-247.424,6.89415,2.43688,-49.3493,-7098.13,-17016.5,-870.692,72.8694,75.7196,-326.312,-175.12,10283.4,-1348.87,-4.6452,-31.2052,-76.4312,-1698.6,-8456.78,721.61,-6.42099,112.392,-66.6979,9469.34,-23.0945,23.8277,-28.5614,14.9142,-4.90257
4.651,3852.38,-1053.26,9738.64,0.233307,-24.7231,9.41272,15699.1,8348.52,12193.7,-139.787,220.515,-188.881,-445.285,10843.3,-261.073,7.00688,2.37075,-49.5581,-7183.42,-17039.9,-908.142,72.625,75.2694,-326.524,-130.945,10260.2,-1360.91,-4.56067,-30.7988,-76.3722,-1687.81,-8547.83,776.464,-4.12054,110.762,-66.0046,9450.46,-16.758,36.0434,-28.7676,14.9519,-4.82902
4.6515,3843.99,-1064.17,9740.86,0.273244,-25.1364,9.46007,15894.2,8402.04,12188.2,-140.974,222.542,-188.251,-423.244,10847.9,-274.723,7.1196,2.30461,-49.7669,-7268.7,-17063.3,-945.593,72.3807,74.8191,-326.735,-86.77,10237.0,-1372.94,-4.47615,-30.3925,-76.3133,-1677.03,-8638.87,831.319,-1.8201,109.132,-65.3113,9431.58,-10.4216,48.259,-28.9738,14.9896,-4.75547
4.652,3835.6,-1075.08,9743.08,0.313182,-25.5498,9.50743,16089.2,8455.55,12182.8,-142.162,224.569,-187.621,-401.203,10852.5,-288.372,7.23233,2.23847,-49.9757,-7353.99,-17086.7,-983.044,72.1363,74.3689,-326.947,-42.595,10213.8,-1384.97,-4.39162,-29.9861,-76.2543,-1666.24,-8729.92,886.173,0.480346,107.503,-64.6181,9412.71,-4.08519,60.4747,-29.1801,15.0274,-4.68192
4.6525,3827.21,-1085.99,9745.3,0.353119,-25.9632,9.55478,16284.2,8509.07,12177.3,-143.349,226.595,-186.991,-379.161,10857.1,-302.022,7.34506,2.17233,-50.1845,-7439.28,-17110.2,-1020.5,71.892,73.9186,-327.158,1.58011,10190.5,-1397.01,-4.30709,-29.5798,-76.1954,-1655.45,-8820.97,941.028,2.78079,105.873,-63.9248,9393.83,2.25124,72.6904,-29.3863,15.0651,-4.60837
4.653,3818.82,-1096.9,9747.51,0.393057,-26.3766,9.60213,16479.3,8562.59,12171.9,-144.536,228.622,-186.361,-357.12,10861.8,-315.671,7.45779,2.10619,-50.3933,-7524.57,-17133.6,-1057.95,71.6476,73.4684,-327.37,45.7552,10167.3,-1409.04,-4.22256,-29.1735,-76.1364,-1644.66,-8912.02,995.882,5.08123,104.243,-63.2315,9374.95,8.58766,84.9061,-29.5925,15.1029,-4.53482
4.6535,3806.06,-1103.0,9751.84,0.424489,-26.8157,9.64304,16668.8,8620.3,12161.3,-145.912,230.691,-185.673,-345.702,10870.1,-326.979,7.51589,2.05479,-50.6017,-7593.67,-17153.1,-1092.03,71.3299,73.0916,-327.63,90.1068,10150.8,-1411.6,-4.11483,-28.7227,-76.0875,-1644.53,-8991.79,1039.16,7.45977,102.819,-62.6132,9364.69,11.8052,91.5811,-29.7682,15.1219,-4.47212
4.654,3784.56,-1099.49,9760.39,0.43891,-27.3062,9.67104,16847.2,8686.39,12140.5,-147.665,232.846,-184.871,-355.528,10885.9,-333.605,7.46475,2.03286,-50.8092,-7630.38,-17164.9,-1119.39,70.8656,72.8618,-327.988,134.811,10147.9,-1395.19,-3.96069,-28.183,-76.0585,-1665.72,-9049.02,1059.28,9.9945,101.805,-62.1448,9371.67,8.78492,87.1749,-29.883,15.1036,-4.43112
4.6545,3763.05,-1095.98,9768.94,0.453331,-27.7968,9.69904,17025.6,8752.47,12119.6,-149.418,235.001,-184.068,-365.355,10901.6,-340.23,7.4136,2.01092,-51.0168,-7667.1,-17176.7,-1146.75,70.4013,72.6321,-328.345,179.516,10145.0,-1378.79,-3.80655,-27.6434,-76.0296,-1686.91,-9106.25,1079.4,12.5292,100.791,-61.6764,9378.65,5.76465,82.7686,-29.9979,15.0853,-4.39011
4.655,3741.55,-1092.47,9777.49,0.467752,-28.2874,9.72705,17204.0,8818.56,12098.8,-151.17,237.155,-183.266,-375.182,10917.4,-346.856,7.36246,1.98899,-51.2243,-7703.82,-17188.5,-1174.11,69.937,72.4023,-328.703,224.221,10142.1,-1362.38,-3.65241,-27.1037,-76.0007,-1708.1,-9163.48,1099.51,15.0639,99.7776,-61.2079,9385.63,2.74438,78.3624,-30.1127,15.067,-4.34911
4.6555,3720.05,-1088.96,9786.04,0.482173,-28.7779,9.75505,17382.4,8884.65,12077.9,-152.923,239.31,-182.463,-385.008,10933.1,-353.481,7.31131,1.96706,-51.4319,-7740.54,-17200.2,-1201.46,69.4727,72.1725,-329.061,268.925,10139.1,-1345.98,-3.49827,-26.5641,-75.9717,-1729.28,-9220.71,1119.63,17.5987,98.7638,-60.7395,9392.61,-0.275891,73.9562,-30.2275,15.0487,-4.3081
4.656,3698.54,-1085.45,9794.59,0.496595,-29.2685,9.78305,17560.8,8950.73,12057.0,-154.676,241.465,-181.661,-394.835,10948.9,-360.106,7.26017,1.94512,-51.6394,-7777.25,-17212.0,-1228.82,69.0083,71.9427,-329.418,313.63,10136.2,-1329.58,-3.34412,-26.0244,-75.9428,-1750.47,-9277.94,1139.75,20.1334,97.7501,-60.2711,9399.59,-3.29616,69.55,-30.3423,15.0304,-4.2671
4.6565,3677.04,-1081.93,9803.13,0.511016,-29.759,9.81106,17739.2,9016.82,12036.2,-156.429,243.619,-180.858,-404.662,10964.7,-366.732,7.20902,1.92319,-51.847,-7813.97,-17223.8,-1256.18,68.544,71.7129,-329.776,358.334,10133.3,-1313.17,-3.18998,-25.4848,-75.9138,-1771.66,-9335.17,1159.87,22.6681,96.7363,-59.8027,9406.57,-6.31643,65.1437,-30.4571,15.0121,-4.22609
4.657,3655.54,-1078.42,9811.68,0.525437,-30.2496,9.83906,17917.6,9082.91,12015.3,-158.181,245.774,-180.056,-414.489,10980.4,-373.357,7.15788,1.90126,-52.0545,-7850.69,-17235.6,-1283.54,68.0797,71.4831,-330.134,403.039,10130.4,-1296.77,-3.03584,-24.9451,-75.8849,-1792.85,-9392.4,1179.99,25.2029,95.7225,-59.3342,9413.55,-9.3367,60.7375,-30.572,14.9938,-4.18509
4.6575,3634.04,-1074.91,9820.23,0.539858,-30.7401,9.86706,18096.0,9148.99,11994.5,-159.934,247.928,-179.253,-424.315,10996.2,-379.982,7.10673,1.87932,-52.2621,-7887.4,-17247.3,-1310.89,67.6154,71.2533,-330.491,447.744,10127.4,-1280.36,-2.8817,-24.4055,-75.856,-1814.03,-9449.63,1200.11,27.7376,94.7087,-58.8658,9420.53,-12.357,56.3313,-30.6868,14.9755,-4.14409
4.658,3622.46,-1067.2,9832.68,0.669841,-31.1887,9.89799,18230.0,9213.84,11942.4,-161.815,249.837,-178.213,-423.323,11011.2,-386.878,7.07272,1.84695,-52.4332,-7895.61,-17250.0,-1338.54,67.1443,71.1117,-330.881,490.649,10130.5,-1264.86,-2.78535,-23.9249,-75.8109,-1837.5,-9487.69,1211.23,30.1138,94.0161,-58.4985,9421.93,-19.1665,48.8419,-30.8461,14.9105,-4.10839
4.6585,3623.31,-1054.25,9849.99,0.944277,-31.5848,9.93257,18308.8,9277.14,11851.3,-163.855,251.439,-176.876,-408.807,11025.4,-394.111,7.06012,1.80152,-52.5588,-7868.16,-17241.2,-1366.56,66.6647,71.0801,-331.312,531.304,10140.9,-1250.48,-2.76124,-23.5182,-75.7458,-1863.81,-9501.77,1211.12,32.292,93.725,-58.2576,9416.36,-30.7127,37.4987,-31.0611,14.7871,-4.07934
4.659,3624.15,-1041.29,9867.3,1.21871,-31.9809,9.96715,18387.5,9340.44,11760.2,-165.895,253.04,-175.539,-394.291,11039.6,-401.344,7.04752,1.75609,-52.6844,-7840.72,-17232.4,-1394.58,66.1851,71.0486,-331.742,571.96,10151.4,-1236.09,-2.73714,-23.1115,-75.6806,-1890.13,-9515.85,1211.01,34.4701,93.4338,-58.0168,9410.8,-42.259,26.1554,-31.2761,14.6637,-4.05029
4.6595,3625.0,-1028.34,9884.61,1.49315,-32.377,10.0017,18466.2,9403.74,11669.1,-167.936,254.642,-174.202,-379.775,11053.7,-408.578,7.03492,1.71065,-52.81,-7813.27,-17223.7,-1422.59,65.7055,71.0171,-332.173,612.616,10161.9,-1221.71,-2.71303,-22.7048,-75.6155,-1916.44,-9529.94,1210.9,36.6483,93.1426,-57.7759,9405.23,-53.8052,14.8121,-31.4911,14.5404,-4.02124
4.66,3625.84,-1015.38,9901.92,1.76758,-32.7731,10.0363,18544.9,9467.04,11578.0,-169.976,256.243,-172.865,-365.26,11067.9,-415.811,7.02232,1.66522,-52.9356,-7785.83,-17214.9,-1450.61,65.226,70.9855,-332.603,653.271,10172.3,-1207.33,-2.68893,-22.298,-75.5503,-1942.76,-9544.02,1210.79,38.8265,92.8514,-57.5351,9399.67,-65.3514,3.46889,-31.7061,14.417,-3.99219
4.6605,3626.69,-1002.43,9919.23,2.04202,-33.1692,10.0709,18623.6,9530.34,11486.9,-172.017,257.845,-171.528,-350.744,11082.1,-423.044,7.00972,1.61979,-53.0612,-7758.38,-17206.1,-1478.63,64.7464,70.954,-333.034,693.927,10182.8,-1192.95,-2.66482,-21.8913,-75.4852,-1969.07,-9558.1,1210.68,41.0046,92.5603,-57.2942,9394.1,-76.8976,-7.87437,-31.9211,14.2936,-3.96314
4.661,3627.53,-989.475,9936.55,2.31645,-33.5653,10.1055,18702.3,9593.64,11395.8,-174.057,259.446,-170.191,-336.228,11096.2,-430.277,6.99711,1.57436,-53.1869,-7730.94,-17197.3,-1506.64,64.2668,70.9225,-333.464,734.583,10193.3,-1178.56,-2.64071,-21.4846,-75.42,-1995.39,-9572.19,1210.56,43.1828,92.2691,-57.0533,9388.54,-88.4438,-19.2176,-32.1361,14.1702,-3.93409
4.6615,3628.38,-976.52,9953.86,2.59089,-33.9614,10.1401,18781.0,9656.94,11304.7,-176.098,261.048,-168.854,-321.712,11110.4,-437.51,6.98451,1.52893,-53.3125,-7703.49,-17188.6,-1534.66,63.7872,70.8909,-333.895,775.238,10203.7,-1164.18,-2.61661,-21.0779,-75.3549,-2021.7,-9586.27,1210.45,45.361,91.9779,-56.8125,9382.97,-99.99,-30.5609,-32.3511,14.0469,-3.90504
4.662,3629.22,-963.565,9971.17,2.86533,-34.3575,10.1746,18859.7,9720.24,11213.6,-178.138,262.649,-167.516,-307.196,11124.6,-444.744,6.97191,1.4835,-53.4381,-7676.05,-17179.8,-1562.68,63.3076,70.8594,-334.325,815.894,10214.2,-1149.8,-2.5925,-20.6711,-75.2897,-2048.02,-9600.35,1210.34,47.5391,91.6868,-56.5716,9377.41,-111.536,-41.9041,-32.5661,13.9235,-3.87599
4.6625,3620.26,-971.694,10001.1,3.15804,-34.896,10.2627,18862.2,9754.51,11113.1,-180.122,263.735,-165.953,-297.18,11133.7,-447.61,6.89625,1.38396,-53.6121,-7624.52,-17171.5,-1579.02,63.0175,70.8168,-334.687,853.245,10223.0,-1133.06,-2.53281,-20.4433,-75.1869,-2076.44,-9579.85,1211.37,49.4685,91.5857,-56.4366,9369.43,-123.422,-56.5061,-32.7595,13.8525,-3.86641
4.663,3603.45,-996.69,10041.1,3.46538,-35.5486,10.3934,18803.7,9765.55,11005.1,-182.06,264.408,-164.208,-290.764,11138.7,-446.984,6.77014,1.24112,-53.8248,-7553.73,-17163.5,-1586.02,62.879,70.7654,-334.994,887.953,10230.5,-1114.43,-2.44466,-20.3585,-75.054,-2106.56,-9531.67,1213.3,51.199,91.6367,-56.3861,9359.52,-135.579,-73.7151,-32.9356,13.8234,-3.8724
4.6635,3586.63,-1021.69,10081.1,3.77272,-36.2012,10.5242,18745.3,9776.6,10897.1,-183.999,265.081,-162.463,-284.348,11143.8,-446.357,6.64402,1.09828,-54.0375,-7482.94,-17155.5,-1593.02,62.7405,70.7141,-335.301,922.661,10238.0,-1095.81,-2.35651,-20.2738,-74.9211,-2136.67,-9483.49,1215.24,52.9294,91.6877,-56.3357,9349.62,-147.736,-90.924,-33.1116,13.7944,-3.87839
4.664,3569.82,-1046.68,10121.1,4.08006,-36.8538,10.6549,18686.8,9787.64,10789.1,-185.937,265.753,-160.718,-277.932,11148.8,-445.731,6.51791,0.955444,-54.2502,-7412.15,-17147.5,-1600.03,62.602,70.6627,-335.608,957.369,10245.5,-1077.18,-2.26835,-20.1891,-74.7882,-2166.78,-9435.31,1217.18,54.6598,91.7388,-56.2853,9339.72,-159.893,-108.133,-33.2877,13.7653,-3.88439
4.6645,3553.01,-1071.68,10161.1,4.3874,-37.5063,10.7857,18628.3,9798.69,10681.1,-187.876,266.426,-158.973,-271.516,11153.9,-445.104,6.3918,0.812607,-54.463,-7341.36,-17139.6,-1607.03,62.4635,70.6113,-335.916,992.077,10253.0,-1058.56,-2.1802,-20.1043,-74.6553,-2196.9,-9387.13,1219.12,56.3902,91.7898,-56.2349,9329.81,-172.05,-125.342,-33.4638,13.7362,-3.89038
4.665,3536.19,-1096.68,10201.0,4.69474,-38.1589,10.9165,18569.8,9809.73,10573.1,-189.814,267.099,-157.228,-265.1,11158.9,-444.478,6.26569,0.669769,-54.6757,-7270.56,-17131.6,-1614.03,62.325,70.5599,-336.223,1026.79,10260.5,-1039.93,-2.09205,-20.0196,-74.5223,-2227.01,-9338.95,1221.05,58.1207,91.8408,-56.1844,9319.91,-184.207,-142.551,-33.6399,13.7072,-3.89637
4.6655,3519.38,-1121.67,10241.0,5.00208,-38.8115,11.0472,18511.4,9820.78,10465.2,-191.753,267.772,-155.483,-258.684,11164.0,-443.851,6.13957,0.526932,-54.8884,-7199.77,-17123.6,-1621.03,62.1865,70.5085,-336.53,1061.49,10268.0,-1021.31,-2.00389,-19.9348,-74.3894,-2257.12,-9290.78,1222.99,59.8511,91.8918,-56.134,9310.0,-196.365,-159.76,-33.8159,13.6781,-3.90236
4.666,3502.57,-1146.67,10281.0,5.30942,-39.4641,11.178,18452.9,9831.82,10357.2,-193.691,268.445,-153.738,-252.268,11169.0,-443.225,6.01346,0.384094,-55.1011,-7128.98,-17115.6,-1628.03,62.048,70.4571,-336.837,1096.2,10275.5,-1002.68,-1.91574,-19.8501,-74.2565,-2287.24,-9242.6,1224.93,61.5815,91.9428,-56.0836,9300.1,-208.522,-176.969,-33.992,13.649,-3.90835
4.6665,3485.75,-1171.66,10321.0,5.61676,-40.1166,11.3087,18394.4,9842.87,10249.2,-195.63,269.118,-151.993,-245.852,11174.1,-442.598,5.88735,0.241257,-55.3139,-7058.19,-17107.7,-1635.04,61.9095,70.4057,-337.144,1130.91,10283.0,-984.056,-1.82759,-19.7654,-74.1236,-2317.35,-9194.42,1226.87,63.312,91.9938,-56.0332,9290.19,-220.679,-194.178,-34.1681,13.62,-3.91435
4.667,3471.28,-1155.42,10342.5,5.56861,-40.8719,11.3786,18274.7,9808.7,10158.0,-197.343,269.237,-150.168,-241.824,11187.8,-421.615,5.84026,0.159238,-55.5873,-6994.08,-17114.4,-1617.99,62.078,70.3491,-337.272,1162.62,10303.4,-967.753,-1.74291,-19.9044,-73.9441,-2351.36,-9125.99,1228.72,64.3345,91.9607,-56.0459,9287.45,-232.155,-196.636,-34.4599,13.6896,-3.84859
4.6675,3457.97,-1118.54,10354.6,5.3427,-41.6786,11.418,18124.2,9751.92,10075.3,-198.944,269.079,-148.303,-238.99,11205.8,-390.453,5.83268,0.107629,-55.8911,-6933.31,-17128.5,-1588.93,62.3999,70.2898,-337.309,1192.83,10330.4,-952.61,-1.65998,-20.1552,-73.7415,-2387.31,-9047.42,1230.54,65.0032,91.8856,-56.0902,9288.29,-243.29,-191.72,-34.8097,13.8085,-3.74697
4.668,3444.67,-1081.67,10366.8,5.1168,-42.4853,11.4574,17973.8,9695.15,9992.63,-200.545,268.921,-146.438,-236.156,11223.7,-359.291,5.8251,0.0560196,-56.1949,-6872.54,-17142.6,-1559.86,62.7219,70.2306,-337.347,1223.04,10357.3,-937.468,-1.57705,-20.4061,-73.5388,-2423.26,-8968.86,1232.35,65.6718,91.8104,-56.1346,9289.12,-254.426,-186.803,-35.1594,13.9274,-3.64534
4.6685,3431.37,-1044.8,10379.0,4.89089,-43.292,11.4968,17823.4,9638.37,9909.92,-202.146,268.763,-144.573,-233.322,11241.7,-328.129,5.81752,0.00441022,-56.4987,-6811.77,-17156.7,-1530.79,63.0438,70.1713,-337.385,1253.25,10384.3,-922.326,-1.49411,-20.657,-73.3361,-2459.21,-8890.3,1234.16,66.3404,91.7353,-56.1789,9289.96,-265.562,-181.886,-35.5091,14.0463,-3.54372
4.669,3418.06,-1007.93,10391.2,4.66498,-44.0986,11.5362,17673.0,9581.59,9827.21,-203.747,268.605,-142.708,-230.488,11259.7,-296.967,5.80994,-0.0471991,-56.8025,-6751.0,-17170.9,-1501.73,63.3657,70.1121,-337.423,1283.46,10411.2,-907.184,-1.41118,-20.9079,-73.1334,-2495.16,-8811.74,1235.98,67.0091,91.6602,-56.2232,9290.79,-276.697,-176.97,-35.8589,14.1652,-3.44209
4.6695,3404.76,-971.06,10403.3,4.43908,-44.9053,11.5756,17522.6,9524.82,9744.51,-205.348,268.448,-140.843,-227.654,11277.7,-265.805,5.80236,-0.0988085,-57.1063,-6690.24,-17185.0,-1472.66,63.6877,70.0528,-337.46,1313.67,10438.2,-892.041,-1.32824,-21.1588,-72.9307,-2531.11,-8733.17,1237.79,67.6777,91.585,-56.2675,9291.63,-287.833,-172.053,-36.2086,14.2842,-3.34047
4.67,3391.46,-934.189,10415.5,4.21317,-45.712,11.615,17372.2,9468.04,9661.8,-206.949,268.29,-138.978,-224.819,11295.7,-234.643,5.79478,-0.150418,-57.4101,-6629.47,-17199.1,-1443.6,64.0096,69.9936,-337.498,1343.88,10465.1,-876.899,-1.24531,-21.4096,-72.728,-2567.06,-8654.61,1239.6,68.3463,91.5099,-56.3119,9292.47,-298.968,-167.136,-36.5583,14.4031,-3.23884
4.6705,3378.15,-897.318,10427.7,3.98727,-46.5187,11.6544,17221.8,9411.26,9579.1,-208.55,268.132,-137.113,-221.985,11313.7,-203.481,5.7872,-0.202027,-57.7139,-6568.7,-17213.2,-1414.53,64.3315,69.9343,-337.536,1374.09,10492.1,-861.757,-1.16238,-21.6605,-72.5253,-2603.02,-8576.05,1241.42,69.015,91.4348,-56.3562,9293.3,-310.104,-162.22,-36.908,14.522,-3.13722
4.671,3364.85,-860.447,10439.8,3.76136,-47.3253,11.6938,17071.3,9354.49,9496.39,-210.151,267.974,-135.248,-219.151,11331.6,-172.319,5.77962,-0.253637,-58.0177,-6507.93,-17227.3,-1385.46,64.6535,69.8751,-337.573,1404.3,10519.0,-846.615,-1.07944,-21.9114,-72.3226,-2638.97,-8497.49,1243.23,69.6836,91.3596,-56.4005,9294.14,-321.239,-157.303,-37.2578,14.6409,-3.03559
4.6715,3364.76,-807.348,10415.3,3.37027,-47.9489,11.9342,16922.8,9269.7,9485.95,-211.278,267.643,-133.759,-204.746,11332.1,-167.777,5.82991,-0.314375,-58.2615,-6490.54,-17244.8,-1359.22,65.1479,69.8419,-337.402,1430.71,10534.3,-850.652,-1.00464,-22.1754,-72.1212,-2680.06,-8401.24,1230.61,69.2283,91.0777,-56.5018,9289.65,-341.071,-159.292,-37.5554,14.7354,-2.99036
4.672,3368.43,-749.614,10380.1,2.93198,-48.5202,12.232,16774.8,9176.91,9496.16,-212.269,267.262,-132.377,-187.035,11327.5,-170.84,5.89673,-0.377722,-58.488,-6485.56,-17263.2,-1333.78,65.6916,69.8162,-337.172,1456.03,10546.2,-860.169,-0.932153,-22.4431,-71.9202,-2722.62,-8299.93,1213.88,68.4519,90.7366,-56.6194,9283.63,-363.388,-163.255,-37.8381,14.8229,-2.96124
4.6725,3372.11,-691.879,10345.0,2.49369,-49.0914,12.5298,16626.7,9084.12,9506.38,-213.261,266.881,-130.995,-169.325,11323.0,-173.903,5.96356,-0.441068,-58.7146,-6480.57,-17281.7,-1308.34,66.2353,69.7905,-336.941,1481.36,10558.2,-869.686,-0.85967,-22.7108,-71.7191,-2765.18,-8198.63,1197.14,67.6755,90.3955,-56.7369,9277.62,-385.704,-167.217,-38.1208,14.9104,-2.93212
4.673,3375.79,-634.144,10309.9,2.05539,-49.6627,12.8277,16478.7,8991.33,9516.59,-214.252,266.5,-129.612,-151.614,11318.4,-176.966,6.03038,-0.504415,-58.9411,-6475.58,-17300.1,-1282.9,66.7791,69.7648,-336.71,1506.68,10570.1,-879.204,-0.787186,-22.9785,-71.5181,-2807.74,-8097.33,1180.4,66.8991,90.0544,-56.8545,9271.61,-408.021,-171.18,-38.4035,14.9979,-2.903
4.6735,3379.47,-576.409,10274.8,1.6171,-50.2339,13.1255,16330.7,8898.54,9526.8,-215.243,266.119,-128.23,-133.903,11313.8,-180.029,6.09721,-0.567762,-59.1677,-6470.59,-17318.6,-1257.46,67.3228,69.7391,-336.48,1532.01,10582.1,-888.721,-0.714703,-23.2462,-71.317,-2850.3,-7996.02,1163.66,66.1227,89.7134,-56.9721,9265.59,-430.337,-175.143,-38.6862,15.0853,-2.87388
4.674,3383.15,-518.675,10239.7,1.17881,-50.8052,13.4233,16182.6,8805.74,9537.01,-216.235,265.738,-126.848,-116.192,11309.3,-183.092,6.16403,-0.631108,-59.3942,-6465.6,-17337.0,-1232.02,67.8665,69.7134,-336.249,1557.33,10594.0,-898.238,-0.64222,-23.514,-71.1159,-2892.86,-7894.72,1146.92,65.3462,89.3723,-57.0896,9259.58,-452.654,-179.105,-38.969,15.1728,-2.84476
4.6745,3386.82,-460.94,10204.6,0.740523,-51.3764,13.7212,16034.6,8712.95,9547.22,-217.226,265.357,-125.466,-98.4816,11304.7,-186.155,6.23086,-0.694455,-59.6208,-6460.61,-17355.5,-1206.58,68.4102,69.6877,-336.018,1582.65,10606.0,-907.755,-0.569737,-23.7817,-70.9149,-2935.42,-7793.41,1130.19,64.5698,89.0313,-57.2072,9253.56,-474.971,-183.068,-39.2517,15.2603,-2.81564
4.675,3390.5,-403.205,10169.5,0.302233,-51.9477,14.019,15886.6,8620.16,9557.43,-218.217,264.976,-124.084,-80.7708,11300.1,-189.218,6.29769,-0.757802,-59.8473,-6455.62,-17373.9,-1181.14,68.9539,69.662,-335.787,1607.98,10617.9,-917.273,-0.497254,-24.0494,-70.7138,-2977.98,-7692.11,1113.45,63.7934,88.6902,-57.3248,9247.55,-497.287,-187.03,-39.5344,15.3478,-2.78652
4.6755,3394.18,-345.47,10134.4,-0.136058,-52.5189,14.3169,15738.5,8527.37,9567.64,-219.208,264.596,-122.702,-63.06,11295.6,-192.281,6.36451,-0.821148,-60.0739,-6450.63,-17392.3,-1155.7,69.4976,69.6363,-335.557,1633.3,10629.9,-926.79,-0.424771,-24.3171,-70.5127,-3020.54,-7590.81,1096.71,63.017,88.3491,-57.4423,9241.54,-519.604,-190.993,-39.8171,15.4353,-2.7574
4.676,3426.69,-372.685,10124.8,-0.191603,-52.969,14.6009,15710.1,8440.08,9586.49,-219.863,265.101,-122.031,-63.0737,11282.8,-226.065,6.57787,-1.13737,-60.2713,-6497.76,-17398.0,-1157.89,69.9024,69.6956,-335.297,1667.43,10641.1,-934.305,-0.399453,-24.4797,-70.2586,-3064.29,-7495.2,1105.24,61.2964,87.995,-57.5246,9253.2,-527.523,-198.791,-40.1523,15.5976,-2.74962
4.6765,3462.81,-410.519,10118.3,-0.199305,-53.4038,14.8833,15696.6,8353.48,9606.42,-220.475,265.717,-121.448,-65.3029,11268.9,-263.688,6.80955,-1.4852,-60.4651,-6551.4,-17402.1,-1163.54,70.2898,69.7656,-335.034,1702.65,10652.1,-941.571,-0.380032,-24.6291,-69.9978,-3108.18,-7400.31,1116.92,59.4577,87.6394,-57.6025,9267.08,-533.643,-207.068,-40.4941,15.7692,-2.74451
4.677,3498.93,-448.353,10111.9,-0.207007,-53.8387,15.1657,15683.1,8266.87,9626.35,-221.087,266.334,-120.866,-67.5322,11255.1,-301.312,7.04122,-1.83303,-60.6589,-6605.05,-17406.2,-1169.18,70.6772,69.8356,-334.77,1737.87,10663.2,-948.836,-0.36061,-24.7785,-69.737,-3152.07,-7305.43,1128.61,57.619,87.2837,-57.6804,9280.96,-539.763,-215.345,-40.8358,15.9409,-2.73941
4.6775,3535.04,-486.187,10105.4,-0.214709,-54.2735,15.448,15669.6,8180.27,9646.28,-221.7,266.95,-120.284,-69.7614,11241.2,-338.936,7.2729,-2.18086,-60.8527,-6658.69,-17410.2,-1174.82,71.0647,69.9057,-334.507,1773.09,10674.3,-956.101,-0.341188,-24.928,-69.4762,-3195.97,-7210.54,1140.3,55.7804,86.928,-57.7583,9294.84,-545.883,-223.623,-41.1776,16.1125,-2.7343
4.678,3571.16,-524.021,10098.9,-0.222412,-54.7084,15.7304,15656.1,8093.67,9666.21,-222.312,267.566,-119.701,-71.9906,11227.4,-376.559,7.50457,-2.52869,-61.0465,-6712.34,-17414.3,-1180.46,71.4521,69.9757,-334.244,1808.31,10685.4,-963.367,-0.321767,-25.0774,-69.2154,-3239.86,-7115.65,1151.98,53.9417,86.5723,-57.8361,9308.71,-552.003,-231.9,-41.5194,16.2842,-2.72919
4.6785,3607.27,-561.854,10092.5,-0.230114,-55.1432,16.0127,15642.7,8007.07,9686.14,-222.924,268.182,-119.119,-74.2199,11213.5,-414.183,7.73625,-2.87652,-61.2403,-6765.98,-17418.4,-1186.11,71.8395,70.0457,-333.98,1843.53,10696.5,-970.632,-0.302345,-25.2268,-68.9546,-3283.75,-7020.76,1163.67,52.103,86.2166,-57.914,9322.59,-558.123,-240.177,-41.8611,16.4558,-2.72408
4.679,3643.39,-599.688,10086.0,-0.237816,-55.5781,16.2951,15629.2,7920.46,9706.07,-223.537,268.799,-118.536,-76.4491,11199.7,-451.807,7.96793,-3.22435,-61.4341,-6819.63,-17422.5,-1191.75,72.2269,70.1157,-333.717,1878.76,10707.6,-977.897,-0.282923,-25.3763,-68.6939,-3327.65,-6925.87,1175.36,50.2644,85.8609,-57.9919,9336.47,-564.242,-248.454,-42.2029,16.6275,-2.71897
4.6795,3679.51,-637.522,10079.5,-0.245518,-56.013,16.5774,15615.7,7833.86,9726.0,-224.149,269.415,-117.954,-78.6783,11185.9,-489.43,8.1996,-3.57218,-61.6279,-6873.27,-17426.6,-1197.39,72.6143,70.1857,-333.454,1913.98,10718.6,-985.162,-0.263502,-25.5257,-68.4331,-3371.54,-6830.98,1187.04,48.4257,85.5052,-58.0698,9350.35,-570.362,-256.732,-42.5447,16.7991,-2.71387
4.68,3715.62,-675.356,10073.1,-0.25322,-56.4478,16.8598,15602.2,7747.26,9745.93,-224.761,270.031,-117.371,-80.9076,11172.0,-527.054,8.43128,-3.92,-61.8217,-6926.92,-17430.6,-1203.03,73.0017,70.2557,-333.191,1949.2,10729.7,-992.428,-0.24408,-25.6751,-68.1723,-3415.43,-6736.09,1198.73,46.587,85.1496,-58.1476,9364.22,-576.482,-265.009,-42.8864,16.9708,-2.70876
4.6805,3713.81,-774.613,10081.0,-0.292256,-57.0142,16.9065,15771.1,7835.31,9779.38,-225.16,271.478,-117.307,-77.1119,11162.5,-556.425,8.56123,-4.17156,-62.217,-7019.21,-17423.7,-1250.52,73.059,70.6072,-333.097,1971.95,10743.3,-989.687,-0.259712,-25.7824,-67.8729,-3416.87,-6658.33,1262.99,44.3192,84.8575,-58.1412,9386.53,-573.793,-253.257,-43.1219,17.1759,-2.6486
4.681,3712.0,-873.871,10088.9,-0.331291,-57.5806,16.9532,15940.1,7923.36,9812.82,-225.558,272.924,-117.242,-73.3162,11153.1,-585.796,8.69119,-4.42312,-62.6123,-7111.5,-17416.8,-1298.02,73.1163,70.9588,-333.004,1994.69,10756.9,-986.946,-0.275344,-25.8896,-67.5735,-3418.3,-6580.56,1327.25,42.0514,84.5655,-58.1347,9408.84,-571.103,-241.505,-43.3574,17.3811,-2.58845
4.6815,3710.19,-973.129,10096.8,-0.370327,-58.147,17.0,16109.0,8011.42,9846.26,-225.957,274.37,-117.177,-69.5206,11143.6,-615.166,8.82115,-4.67468,-63.0077,-7203.79,-17409.8,-1345.51,73.1736,71.3103,-332.911,2017.44,10770.5,-984.205,-0.290977,-25.9968,-67.2742,-3419.74,-6502.8,1391.51,39.7836,84.2734,-58.1283,9431.15,-568.414,-229.754,-43.5928,17.5862,-2.52829
4.682,3708.37,-1072.39,10104.8,-0.409363,-58.7134,17.0467,16278.0,8099.47,9879.7,-226.355,275.816,-117.113,-65.7249,11134.2,-644.537,8.9511,-4.92624,-63.403,-7296.08,-17402.9,-1393.0,73.2309,71.6618,-332.818,2040.18,10784.0,-981.464,-0.306609,-26.104,-66.9748,-3421.18,-6425.04,1455.77,37.5157,83.9814,-58.1219,9453.46,-565.725,-218.002,-43.8283,17.7913,-2.46814
4.6825,3706.56,-1171.64,10112.7,-0.448399,-59.2798,17.0934,16446.9,8187.52,9913.15,-226.754,277.262,-117.048,-61.9292,11124.7,-673.908,9.08106,-5.17779,-63.7983,-7388.36,-17396.0,-1440.49,73.2882,72.0134,-332.725,2062.93,10797.6,-978.723,-0.322241,-26.2113,-66.6754,-3422.61,-6347.27,1520.03,35.2479,83.6893,-58.1154,9475.76,-563.035,-206.25,-44.0638,17.9964,-2.40798
4.683,3704.75,-1270.9,10120.6,-0.487435,-59.8462,17.1401,16615.8,8275.57,9946.59,-227.152,278.708,-116.984,-58.1336,11115.2,-703.278,9.21101,-5.42935,-64.1936,-7480.65,-17389.0,-1487.98,73.3455,72.3649,-332.632,2085.67,10811.2,-975.982,-0.337873,-26.3185,-66.376,-3424.05,-6269.51,1584.29,32.9801,83.3973,-58.109,9498.07,-560.346,-194.498,-44.2993,18.2016,-2.34783
4.6835,3702.94,-1370.16,10128.6,-0.526471,-60.4126,17.1868,16784.8,8363.63,9980.03,-227.551,280.155,-116.919,-54.3379,11105.8,-732.649,9.34097,-5.68091,-64.589,-7572.94,-17382.1,-1535.47,73.4028,72.7164,-332.539,2108.42,10824.8,-973.242,-0.353505,-26.4257,-66.0767,-3425.48,-6191.74,1648.54,30.7123,83.1053,-58.1026,9520.38,-557.656,-182.747,-44.5347,18.4067,-2.28767
4.684,3701.13,-1469.42,10136.5,-0.565507,-60.979,17.2336,16953.7,8451.68,10013.5,-227.949,281.601,-116.854,-50.5423,11096.3,-762.02,9.47092,-5.93247,-64.9843,-7665.23,-17375.2,-1582.96,73.4601,73.068,-332.446,2131.16,10838.3,-970.501,-0.369137,-26.533,-65.7773,-3426.92,-6113.98,1712.8,28.4445,82.8132,-58.0961,9542.69,-554.967,-170.995,-44.7702,18.6118,-2.22752
4.6845,3696.66,-1561.33,10141.6,-0.629547,-61.5408,17.2612,17126.7,8551.03,10043.7,-228.272,283.019,-116.824,-47.1078,11090.7,-793.768,9.57997,-6.17233,-65.3731,-7754.63,-17370.1,-1630.0,73.4811,73.4249,-332.36,2154.6,10851.9,-969.588,-0.37071,-26.631,-65.4908,-3424.68,-6038.51,1779.18,26.1635,82.5368,-58.0891,9562.37,-554.029,-160.538,-45.0069,18.7944,-2.17521
4.685,3670.94,-1594.52,10123.8,-0.893622,-62.0664,17.1366,17332.3,8740.81,10048.3,-227.995,284.213,-117.063,-46.5629,11115.6,-844.539,9.52172,-6.3186,-65.7099,-7820.91,-17379.6,-1673.43,73.2118,73.8244,-332.338,2183.55,10865.0,-983.297,-0.259809,-26.6558,-65.3074,-3393.07,-5981.4,1862.47,23.7774,82.3849,-58.077,9561.07,-567.105,-160.443,-45.2533,18.7967,-2.18567
4.6855,3645.21,-1627.7,10106.0,-1.1577,-62.592,17.0119,17538.0,8930.58,10053.0,-227.718,285.406,-117.303,-46.018,11140.5,-895.31,9.46348,-6.46489,-66.0467,-7887.2,-17389.1,-1716.86,72.9425,74.2239,-332.315,2212.5,10878.2,-997.007,-0.148908,-26.6806,-65.1241,-3361.46,-5924.29,1945.76,21.3913,82.233,-58.065,9559.77,-580.181,-160.347,-45.4997,18.799,-2.19613
4.686,3619.49,-1660.88,10088.3,-1.42177,-63.1176,16.8872,17743.6,9120.36,10057.6,-227.44,286.6,-117.542,-45.473,11165.5,-946.082,9.40524,-6.61117,-66.3835,-7953.48,-17398.6,-1760.29,72.6732,74.6234,-332.292,2241.45,10891.4,-1010.72,-0.0380063,-26.7055,-64.9407,-3329.85,-5867.19,2029.05,19.0052,82.0811,-58.0529,9558.47,-593.256,-160.252,-45.7461,18.8013,-2.20659
4.6865,3593.77,-1694.07,10070.5,-1.68585,-63.6432,16.7625,17949.2,9310.14,10062.2,-227.163,287.793,-117.782,-44.9281,11190.4,-996.853,9.347,-6.75745,-66.7203,-8019.76,-17408.1,-1803.72,72.4039,75.0229,-332.27,2270.4,10904.5,-1024.43,0.0728951,-26.7303,-64.7573,-3298.24,-5810.08,2112.34,16.6191,81.9292,-58.0409,9557.18,-606.332,-160.156,-45.9925,18.8036,-2.21706
4.687,3568.05,-1727.25,10052.8,-1.94992,-64.1687,16.6378,18154.8,9499.91,10066.9,-226.885,288.987,-118.021,-44.3832,11215.3,-1047.62,9.28875,-6.90373,-67.0571,-8086.05,-17417.7,-1847.15,72.1345,75.4224,-332.247,2299.35,10917.7,-1038.14,0.183796,-26.7551,-64.5739,-3266.63,-5752.97,2195.63,14.233,81.7774,-58.0289,9555.88,-619.408,-160.061,-46.239,18.8059,-2.22752
4.6875,3542.33,-1760.43,10035.0,-2.214,-64.6943,16.5132,18360.4,9689.69,10071.5,-226.608,290.181,-118.261,-43.8383,11240.3,-1098.39,9.23051,-7.05001,-67.3939,-8152.33,-17427.2,-1890.57,71.8652,75.8219,-332.225,2328.3,10930.9,-1051.85,0.294698,-26.7799,-64.3906,-3235.02,-5695.87,2278.92,11.8469,81.6255,-58.0168,9554.58,-632.484,-159.965,-46.4854,18.8083,-2.23798
4.688,3516.61,-1793.62,10017.3,-2.47807,-65.2199,16.3885,18566.1,9879.46,10076.1,-226.331,291.374,-118.5,-43.2934,11265.2,-1149.17,9.17227,-7.19628,-67.7307,-8218.61,-17436.7,-1934.0,71.5959,76.2214,-332.202,2357.25,10944.0,-1065.56,0.405599,-26.8047,-64.2072,-3203.41,-5638.76,2362.21,9.4608,81.4736,-58.0048,9553.28,-645.559,-159.87,-46.7318,18.8106,-2.24844
4.6885,3490.88,-1826.8,9999.53,-2.74215,-65.7455,16.2638,18771.7,10069.2,10080.7,-226.053,292.568,-118.74,-42.7485,11290.1,-1199.94,9.11403,-7.34257,-68.0675,-8284.89,-17446.2,-1977.43,71.3266,76.6209,-332.179,2386.2,10957.2,-1079.27,0.516501,-26.8295,-64.0238,-3171.8,-5581.65,2445.5,7.0747,81.3217,-57.9927,9551.98,-658.635,-159.774,-46.9782,18.8129,-2.2589
4.689,3472.83,-1842.15,9986.32,-2.98337,-66.2668,16.1676,18950.0,10252.5,10076.1,-225.574,293.583,-119.074,-41.1502,11316.3,-1238.91,9.02816,-7.44178,-68.4296,-8338.37,-17464.1,-2009.29,71.0346,76.8972,-332.15,2410.85,10970.4,-1093.81,0.628312,-26.8476,-63.8146,-3127.43,-5534.83,2523.51,4.71205,81.1173,-57.9416,9558.08,-668.24,-161.587,-47.2004,18.8197,-2.24981
4.6895,3481.64,-1795.06,9989.02,-3.1446,-66.7732,16.1712,19032.8,10412.7,10039.2,-224.387,293.972,-119.741,-35.865,11346.7,-1236.6,8.84562,-7.37626,-68.8807,-8347.04,-17511.6,-2000.69,70.6629,76.7424,-332.095,2420.47,10983.9,-1111.27,0.743307,-26.8423,-63.5149,-3038.4,-5524.03,2583.03,2.43151,80.7292,-57.7535,9590.05,-665.698,-170.077,-47.3375,18.8421,-2.17225
4.69,3490.44,-1747.96,9991.72,-3.30584,-67.2796,16.1747,19115.6,10573.0,10002.2,-223.199,294.361,-120.408,-30.5798,11377.1,-1234.29,8.66308,-7.31075,-69.3317,-8355.7,-17559.1,-1992.08,70.2912,76.5876,-332.04,2430.08,10997.3,-1128.73,0.858303,-26.837,-63.2152,-2949.37,-5513.23,2642.55,0.150968,80.341,-57.5654,9622.02,-663.156,-178.568,-47.4747,18.8646,-2.09469
4.6905,3499.24,-1700.87,9994.42,-3.46707,-67.786,16.1783,19198.4,10733.3,9965.23,-222.012,294.749,-121.074,-25.2946,11407.6,-1231.98,8.48054,-7.24523,-69.7827,-8364.37,-17606.6,-1983.47,69.9196,76.4328,-331.986,2439.69,11010.8,-1146.2,0.973299,-26.8317,-62.9156,-2860.34,-5502.42,2702.07,-2.12958,79.9528,-57.3773,9653.99,-660.615,-187.059,-47.6119,18.8871,-2.01713
4.691,3508.04,-1653.78,9997.12,-3.6283,-68.2924,16.1818,19281.3,10893.6,9928.27,-220.825,295.138,-121.741,-20.0094,11438.0,-1229.67,8.298,-7.17972,-70.2338,-8373.03,-17654.1,-1974.86,69.5479,76.278,-331.931,2449.3,11024.2,-1163.66,1.08829,-26.8263,-62.6159,-2771.31,-5491.62,2761.59,-4.41012,79.5647,-57.1892,9685.96,-658.073,-195.549,-47.7491,18.9095,-1.93957
4.6915,3516.84,-1606.69,9999.82,-3.78954,-68.7988,16.1854,19364.1,11053.9,9891.3,-219.638,295.527,-122.408,-14.7242,11468.5,-1227.36,8.11546,-7.1142,-70.6848,-8381.7,-17701.5,-1966.25,69.1762,76.1231,-331.876,2458.92,11037.7,-1181.12,1.20329,-26.821,-62.3162,-2682.28,-5480.81,2821.11,-6.69066,79.1765,-57.0011,9717.93,-655.531,-204.04,-47.8863,18.932,-1.86201
4.692,3525.64,-1559.6,10002.5,-3.95077,-69.3053,16.1889,19446.9,11214.2,9854.34,-218.451,295.916,-123.075,-9.43898,11498.9,-1225.05,7.93292,-7.04869,-71.1358,-8390.36,-17749.0,-1957.64,68.8045,75.9683,-331.822,2468.53,11051.1,-1198.58,1.31829,-26.8157,-62.0165,-2593.25,-5470.01,2880.63,-8.9712,78.7883,-56.813,9749.9,-652.989,-212.53,-48.0235,18.9545,-1.78445
4.6925,3534.45,-1512.51,10005.2,-4.112,-69.8117,16.1924,19529.7,11374.5,9817.37,-217.264,296.305,-123.741,-4.15378,11529.3,-1222.74,7.75038,-6.98317,-71.5869,-8399.03,-17796.5,-1949.04,68.4329,75.8135,-331.767,2478.14,11064.6,-1216.05,1.43328,-26.8104,-61.7168,-2504.22,-5459.21,2940.15,-11.2517,78.4001,-56.625,9781.87,-650.447,-221.021,-48.1606,18.977,-1.70689
4.693,3543.25,-1465.42,10007.9,-4.27323,-70.3181,16.196,19612.5,11534.8,9780.41,-216.077,296.694,-124.408,1.13142,11559.8,-1220.42,7.56784,-6.91766,-72.0379,-8407.69,-17844.0,-1940.43,68.0612,75.6587,-331.712,2487.76,11078.0,-1233.51,1.54828,-26.805,-61.4172,-2415.18,-5448.4,2999.67,-13.5323,78.012,-56.4369,9813.84,-647.905,-229.512,-48.2978,18.9994,-1.62933
4.6935,3554.95,-1428.16,10005.3,-4.43858,-70.8218,16.2501,19652.0,11646.5,9693.54,-214.725,297.093,-125.173,13.3398,11588.9,-1216.9,7.33126,-6.80307,-72.4663,-8402.14,-17905.7,-1939.42,67.5471,75.2406,-331.688,2500.56,11083.2,-1257.37,1.68464,-26.7795,-61.1558,-2308.22,-5444.01,3046.84,-15.6472,77.4786,-56.1854,9828.04,-639.745,-236.724,-48.4506,19.0304,-1.55247
4.694,3572.45,-1410.56,9991.93,-4.61215,-71.3201,16.4051,19604.9,11661.2,9506.87,-213.045,297.513,-126.134,39.3944,11615.6,-1210.96,6.9866,-6.59033,-72.8495,-8368.15,-17996.0,-1953.6,66.7479,74.2957,-331.723,2519.73,11071.9,-1294.05,1.86374,-26.7134,-60.9711,-2165.38,-5452.43,3069.34,-17.4308,76.6547,-55.8071,9806.71,-620.35,-241.381,-48.6345,19.0786,-1.47701
4.6945,3589.94,-1392.96,9978.59,-4.78572,-71.8183,16.5602,19557.8,11675.9,9320.21,-211.364,297.933,-127.094,65.449,11642.2,-1205.02,6.64194,-6.3776,-73.2327,-8334.16,-18086.4,-1967.79,65.9488,73.3509,-331.758,2538.91,11060.6,-1330.72,2.04285,-26.6473,-60.7864,-2022.54,-5460.86,3091.83,-19.2144,75.8309,-55.4288,9785.37,-600.954,-246.038,-48.8183,19.1267,-1.40155
4.695,3607.44,-1375.37,9965.25,-4.95929,-72.3166,16.7153,19510.6,11690.6,9133.54,-209.684,298.352,-128.055,91.5036,11668.9,-1199.08,6.29728,-6.16486,-73.6159,-8300.17,-18176.7,-1981.97,65.1497,72.4061,-331.794,2558.08,11049.2,-1367.39,2.22195,-26.5812,-60.6018,-1879.7,-5469.28,3114.32,-20.9981,75.0071,-55.0505,9764.03,-581.558,-250.695,-49.0022,19.1748,-1.32609
4.6955,3624.94,-1357.77,9951.91,-5.13286,-72.8149,16.8704,19463.5,11705.3,8946.87,-208.003,298.772,-129.016,117.558,11695.5,-1193.14,5.95262,-5.95213,-73.999,-8266.18,-18267.0,-1996.16,64.3506,71.4613,-331.829,2577.26,11037.9,-1404.06,2.40105,-26.5151,-60.4171,-1736.86,-5477.71,3136.81,-22.7817,74.1833,-54.6722,9742.7,-562.163,-255.352,-49.1861,19.223,-1.25063
4.696,3642.44,-1340.17,9938.57,-5.30644,-73.3132,17.0255,19416.4,11720.0,8760.21,-206.322,299.191,-129.977,143.613,11722.2,-1187.2,5.60797,-5.73939,-74.3822,-8232.19,-18357.3,-2010.34,63.5515,70.5165,-331.864,2596.43,11026.6,-1440.73,2.58015,-26.4491,-60.2324,-1594.01,-5486.13,3159.31,-24.5653,73.3594,-54.2939,9721.36,-542.767,-260.009,-49.37,19.2711,-1.17517
4.6965,3659.94,-1322.57,9925.23,-5.48001,-73.8115,17.1806,19369.2,11734.7,8573.54,-204.642,299.611,-130.938,169.667,11748.8,-1181.26,5.26331,-5.52666,-74.7654,-8198.2,-18447.6,-2024.53,62.7524,69.5717,-331.9,2615.61,11015.3,-1477.4,2.75925,-26.383,-60.0477,-1451.17,-5494.56,3181.8,-26.349,72.5356,-53.9156,9700.02,-523.371,-264.665,-49.5539,19.3192,-1.09972
4.697,3677.43,-1304.98,9911.89,-5.65358,-74.3097,17.3357,19322.1,11749.4,8386.87,-202.961,300.03,-131.898,195.722,11775.5,-1175.32,4.91865,-5.31392,-75.1486,-8164.22,-18538.0,-2038.71,61.9533,68.6268,-331.935,2634.78,11004.0,-1514.07,2.93835,-26.3169,-59.863,-1308.33,-5502.99,3204.29,-28.1326,71.7118,-53.5373,9678.69,-503.976,-269.322,-49.7378,19.3674,-1.02426
4.6975,3694.93,-1287.38,9898.55,-5.82715,-74.808,17.4908,19275.0,11764.2,8200.21,-201.281,300.45,-132.859,221.777,11802.1,-1169.38,4.57399,-5.10119,-75.5318,-8130.23,-18628.3,-2052.9,61.1541,67.682,-331.97,2653.96,10992.6,-1550.74,3.11745,-26.2508,-59.6783,-1165.49,-5511.41,3226.78,-29.9162,70.888,-53.159,9657.35,-484.58,-273.979,-49.9216,19.4155,-0.948798
4.698,3710.22,-1286.89,9883.99,-5.93371,-75.2344,17.6554,19159.9,11779.7,7953.5,-199.675,300.217,-133.382,241.495,11815.3,-1170.91,4.27408,-4.90484,-75.9193,-8076.69,-18723.5,-2151.55,60.2948,66.9458,-331.888,2673.71,10980.0,-1579.9,3.26751,-26.2279,-59.4635,-1022.04,-5540.03,3233.9,-31.1685,70.0612,-52.6612,9643.45,-473.719,-262.873,-50.0812,19.4073,-0.885312
4.6985,3722.74,-1307.8,9867.92,-5.95651,-75.5708,17.8319,18959.9,11796.4,7631.73,-198.164,299.169,-133.356,253.292,11811.7,-1181.78,4.03011,-4.72897,-76.3122,-7998.73,-18824.9,-2355.79,59.3601,66.4704,-331.658,2694.2,10965.8,-1599.66,3.38127,-26.259,-59.211,-877.821,-5593.89,3221.79,-31.7566,69.2308,-52.0139,9638.85,-473.525,-232.063,-50.2104,19.3287,-0.836793
4.699,3735.25,-1328.71,9851.84,-5.97931,-75.9073,18.0085,18760.0,11813.1,7309.96,-196.653,298.121,-133.331,265.09,11808.1,-1192.64,3.78613,-4.5531,-76.7052,-7920.76,-18926.3,-2560.03,58.4254,65.995,-331.429,2714.68,10951.6,-1619.42,3.49502,-26.2901,-58.9585,-733.602,-5647.75,3209.69,-32.3448,68.4004,-51.3666,9634.25,-473.331,-201.254,-50.3395,19.2502,-0.788275
4.6995,3747.77,-1349.62,9835.76,-6.00212,-76.2438,18.185,18560.0,11829.8,6988.19,-195.141,297.073,-133.305,276.887,11804.5,-1203.51,3.54216,-4.37723,-77.0981,-7842.8,-19027.7,-2764.27,57.4907,65.5196,-331.199,2735.16,10937.4,-1639.18,3.60877,-26.3211,-58.7059,-589.383,-5701.61,3197.59,-32.9329,67.5699,-50.7194,9629.65,-473.137,-170.444,-50.4687,19.1716,-0.739756
4.7,3760.29,-1370.53,9819.69,-6.02492,-76.5802,18.3616,18360.0,11846.5,6666.42,-193.63,296.025,-133.28,288.685,11800.9,-1214.38,3.29818,-4.20136,-77.4911,-7764.83,-19129.2,-2968.5,56.556,65.0442,-330.969,2755.65,10923.2,-1658.94,3.72253,-26.3522,-58.4534,-445.164,-5755.47,3185.48,-33.521,66.7395,-50.0721,9625.06,-472.943,-139.634,-50.5978,19.093,-0.691237
4.7005,3772.81,-1391.43,9803.61,-6.04772,-76.9167,18.5382,18160.0,11863.2,6344.66,-192.119,294.976,-133.255,300.482,11797.3,-1225.24,3.05421,-4.02549,-77.884,-7686.87,-19230.6,-3172.74,55.6213,64.5688,-330.74,2776.13,10909.0,-1678.7,3.83628,-26.3833,-58.2009,-300.945,-5809.33,3173.38,-34.1092,65.9091,-49.4249,9620.46,-472.749,-108.824,-50.727,19.0144,-0.642718
4.701,3785.33,-1412.34,9787.54,-6.07052,-77.2531,18.7147,17960.1,11879.9,6022.89,-190.608,293.928,-133.229,312.279,11793.7,-1236.11,2.81024,-3.84962,-78.2769,-7608.9,-19332.0,-3376.98,54.6866,64.0934,-330.51,2796.62,10894.8,-1698.46,3.95003,-26.4143,-57.9484,-156.726,-5863.19,3161.27,-34.6973,65.0787,-48.7776,9615.86,-472.555,-78.0146,-50.8561,18.9358,-0.594199
4.7015,3797.85,-1433.25,9771.46,-6.09332,-77.5896,18.8913,17760.1,11896.6,5701.12,-189.096,292.88,-133.204,324.077,11790.1,-1246.98,2.56626,-3.67375,-78.6699,-7530.94,-19433.4,-3581.22,53.7519,63.618,-330.28,2817.1,10880.6,-1718.22,4.06379,-26.4454,-57.6958,-12.5072,-5917.05,3149.17,-35.2854,64.2483,-48.1304,9611.26,-472.361,-47.2048,-50.9852,18.8573,-0.545681
4.702,3810.37,-1454.16,9755.38,-6.11613,-77.926,19.0678,17560.1,11913.2,5379.35,-187.585,291.832,-133.179,335.874,11786.5,-1257.84,2.32229,-3.49788,-79.0628,-7452.97,-19534.8,-3785.46,52.8172,63.1426,-330.051,2837.58,10866.4,-1737.98,4.17754,-26.4764,-57.4433,131.712,-5970.91,3137.06,-35.8735,63.4179,-47.4831,9606.66,-472.167,-16.3951,-51.1144,18.7787,-0.497162
4.7025,3825.18,-1477.51,9743.89,-6.24461,-78.3606,19.1748,17295.1,11935.1,5147.33,-186.235,289.275,-132.187,339.076,11771.8,-1257.31,2.13099,-3.37159,-79.4541,-7366.65,-19626.3,-3995.49,52.1073,62.8787,-329.433,2853.72,10855.5,-1755.26,4.24453,-26.4486,-57.2345,295.658,-6055.7,3165.76,-35.6549,62.8735,-46.6657,9606.89,-469.664,16.4285,-51.2284,18.5468,-0.428354
4.703,3841.82,-1502.83,9736.07,-6.45764,-78.8736,19.226,16978.1,11961.2,4987.11,-185.014,285.511,-130.422,335.401,11748.3,-1247.67,1.98183,-3.28497,-79.8441,-7273.65,-19709.9,-4210.17,51.5772,62.7839,-328.505,2866.38,10847.2,-1770.56,4.27411,-26.3737,-57.0605,475.387,-6165.25,3227.11,-34.7909,62.558,-45.7122,9610.98,-465.313,50.8633,-51.3302,18.1922,-0.343315
4.7035,3858.47,-1528.15,9728.25,-6.67067,-79.3866,19.2773,16661.2,11987.2,4826.89,-183.793,281.747,-128.657,331.725,11724.7,-1238.03,1.83267,-3.19835,-80.2341,-7180.65,-19793.5,-4424.84,51.0471,62.6892,-327.576,2879.04,10838.9,-1785.86,4.30369,-26.2987,-56.8866,655.116,-6274.79,3288.45,-33.9269,62.2424,-44.7588,9615.08,-460.963,85.298,-51.432,17.8377,-0.258276
4.704,3875.11,-1553.46,9720.43,-6.8837,-79.8996,19.3285,16344.2,12013.2,4666.67,-182.572,277.983,-126.891,328.05,11701.2,-1228.38,1.68352,-3.11174,-80.6241,-7087.64,-19877.1,-4639.51,50.5171,62.5944,-326.648,2891.69,10830.6,-1801.16,4.33327,-26.2237,-56.7126,834.844,-6384.34,3349.79,-33.0629,61.9269,-43.8053,9619.17,-456.613,119.733,-51.5338,17.4832,-0.173237
4.7045,3891.76,-1578.78,9712.61,-7.09673,-80.4126,19.3798,16027.2,12039.3,4506.45,-181.351,274.22,-125.126,324.375,11677.7,-1218.74,1.53436,-3.02512,-81.0141,-6994.64,-19960.7,-4854.19,49.987,62.4997,-325.72,2904.35,10822.3,-1816.46,4.36285,-26.1488,-56.5387,1014.57,-6493.88,3411.14,-32.1989,61.6113,-42.8518,9623.26,-452.262,154.167,-51.6356,17.1286,-0.0881977
4.705,3908.4,-1604.09,9704.79,-7.30976,-80.9257,19.4311,15710.3,12065.3,4346.23,-180.13,270.456,-123.361,320.7,11654.2,-1209.1,1.3852,-2.9385,-81.4041,-6901.64,-20044.3,-5068.86,49.457,62.4049,-324.791,2917.01,10814.0,-1831.76,4.39243,-26.0738,-56.3647,1194.3,-6603.43,3472.48,-31.3349,61.2958,-41.8983,9627.36,-447.912,188.602,-51.7375,16.7741,-0.00315858
4.7055,3925.05,-1629.41,9696.97,-7.52279,-81.4387,19.4823,15393.3,12091.3,4186.01,-178.909,266.692,-121.596,317.025,11630.6,-1199.45,1.23604,-2.85188,-81.794,-6808.64,-20128.0,-5283.53,48.9269,62.3102,-323.863,2929.67,10805.7,-1847.06,4.42201,-25.9989,-56.1908,1374.03,-6712.97,3533.82,-30.4709,60.9803,-40.9448,9631.45,-443.562,223.037,-51.8393,16.4196,0.0818805
4.706,3941.69,-1654.72,9689.16,-7.73582,-81.9517,19.5336,15076.3,12117.4,4025.79,-177.688,262.928,-119.831,313.35,11607.1,-1189.81,1.08689,-2.76526,-82.184,-6715.63,-20211.6,-5498.21,48.3969,62.2154,-322.935,2942.33,10797.4,-1862.36,4.45159,-25.9239,-56.0168,1553.76,-6822.52,3595.16,-29.6069,60.6647,-39.9914,9635.54,-439.211,257.472,-51.9411,16.065,0.16692
4.7065,3958.34,-1680.04,9681.34,-7.94885,-82.4647,19.5849,14759.3,12143.4,3865.57,-176.467,259.164,-118.066,309.675,11583.6,-1180.17,0.937729,-2.67864,-82.574,-6622.63,-20295.2,-5712.88,47.8668,62.1207,-322.007,2954.98,10789.1,-1877.66,4.48117,-25.849,-55.8429,1733.49,-6932.06,3656.51,-28.7429,60.3492,-39.0379,9639.64,-434.861,291.906,-52.0429,15.7105,0.251959
4.707,3962.86,-1678.25,9673.11,-8.28708,-82.8975,19.5751,14512.3,12079.9,3620.0,-176.552,254.988,-116.334,306.33,11546.9,-1175.8,0.767582,-2.5287,-82.9215,-6604.34,-20317.9,-5858.76,47.5891,61.5711,-320.526,2980.95,10761.9,-1885.71,4.49287,-25.6836,-55.7139,1957.31,-7048.58,3752.08,-27.3359,60.4534,-37.754,9634.59,-446.634,318.379,-52.1445,15.3184,0.345728
4.7075,3961.32,-1662.9,9664.67,-8.6879,-83.2902,19.5347,14300.3,11971.6,3331.74,-177.29,250.606,-114.619,303.15,11503.7,-1174.07,0.586941,-2.34711,-83.2478,-6623.41,-20310.1,-5970.23,47.4374,60.794,-318.768,3013.57,10725.3,-1890.15,4.49562,-25.4731,-55.6074,2203.19,-7168.58,3864.77,-25.6576,60.7674,-36.3049,9624.97,-466.47,340.872,-52.246,14.9074,0.443862
4.708,3959.78,-1647.55,9656.24,-9.08872,-83.683,19.4944,14088.3,11863.2,3043.49,-178.029,246.223,-112.904,299.97,11460.6,-1172.33,0.406299,-2.16552,-83.5741,-6642.48,-20302.3,-6081.71,47.2858,60.0169,-317.011,3046.19,10688.6,-1894.58,4.49837,-25.2625,-55.5008,2449.06,-7288.59,3977.45,-23.9792,61.0815,-34.8558,9615.36,-486.305,363.364,-52.3475,14.4965,0.541996
4.7085,3958.24,-1632.2,9647.81,-9.48954,-84.0757,19.4541,13876.3,11754.9,2755.24,-178.767,241.841,-111.188,296.79,11417.4,-1170.6,0.225657,-1.98393,-83.9004,-6661.55,-20294.6,-6193.19,47.1342,59.2399,-315.253,3078.81,10652.0,-1899.02,4.50112,-25.052,-55.3943,2694.93,-7408.6,4090.14,-22.3008,61.3955,-33.4068,9605.74,-506.14,385.856,-52.449,14.0855,0.640129
4.709,3956.7,-1616.85,9639.37,-9.89036,-84.4684,19.4138,13664.3,11646.6,2466.98,-179.505,237.459,-109.473,293.61,11374.2,-1168.87,0.0450156,-1.80234,-84.2267,-6680.62,-20286.8,-6304.67,46.9826,58.4628,-313.496,3111.43,10615.3,-1903.45,4.50387,-24.8414,-55.2878,2940.81,-7528.6,4202.83,-20.6224,61.7095,-31.9577,9596.13,-525.975,408.349,-52.5504,13.6746,0.738263
4.7095,3955.16,-1601.5,9630.94,-10.2912,-84.8611,19.3734,13452.3,11538.3,2178.73,-180.244,233.077,-107.758,290.431,11331.0,-1167.14,-0.135626,-1.62074,-84.553,-6699.69,-20279.0,-6416.14,46.831,57.6857,-311.739,3144.05,10578.7,-1907.89,4.50662,-24.6309,-55.1813,3186.68,-7648.61,4315.52,-18.944,62.0236,-30.5086,9586.51,-545.811,430.841,-52.6519,13.2636,0.836397
4.71,3953.62,-1586.15,9622.5,-10.692,-85.2538,19.3331,13240.3,11430.0,1890.48,-180.982,228.694,-106.043,287.251,11287.8,-1165.41,-0.316268,-1.43915,-84.8793,-6718.76,-20271.2,-6527.62,46.6794,56.9087,-309.981,3176.67,10542.0,-1912.32,4.50937,-24.4203,-55.0748,3432.56,-7768.61,4428.2,-17.2656,62.3376,-29.0595,9576.89,-565.646,453.333,-52.7534,12.8527,0.934531
4.7105,3952.08,-1570.8,9614.07,-11.0928,-85.6466,19.2928,13028.3,11321.6,1602.23,-181.72,224.312,-104.328,284.071,11244.6,-1163.68,-0.496909,-1.25756,-85.2056,-6737.82,-20263.5,-6639.1,46.5277,56.1316,-308.224,3209.29,10505.4,-1916.76,4.51212,-24.2098,-54.9683,3678.43,-7888.62,4540.89,-15.5873,62.6517,-27.6105,9567.28,-585.481,475.826,-52.8549,12.4417,1.03267
4.711,3950.54,-1555.45,9605.64,-11.4937,-86.0393,19.2525,12816.3,11213.3,1313.97,-182.459,219.93,-102.612,280.891,11201.4,-1161.95,-0.677551,-1.07597,-85.5319,-6756.89,-20255.7,-6750.58,46.3761,55.3546,-306.467,3241.91,10468.7,-1921.19,4.51487,-23.9992,-54.8618,3924.3,-8008.63,4653.58,-13.9089,62.9657,-26.1614,9557.66,-605.316,498.318,-52.9564,12.0308,1.1308
4.7115,3948.03,-1530.51,9607.55,-11.9197,-86.5063,19.3019,12878.6,11156.5,1086.52,-184.771,215.805,-101.05,268.394,11177.7,-1155.92,-0.749761,-0.841331,-85.9049,-6952.09,-20175.6,-6850.06,45.8752,54.8895,-304.409,3263.34,10435.9,-1913.19,4.48934,-23.7956,-54.7715,4186.94,-8119.81,4748.1,-12.0566,63.7225,-24.5055,9547.64,-613.633,503.19,-52.9581,11.658,1.19535
4.712,3945.25,-1502.83,9612.42,-12.3529,-86.9945,19.3771,13019.3,11114.3,876.446,-187.533,211.755,-99.5312,253.235,11159.5,-1148.67,-0.79099,-0.591537,-86.2913,-7197.61,-20074.7,-6946.12,45.2744,54.5137,-302.265,3281.58,10404.3,-1901.63,4.45573,-23.5939,-54.6858,4454.37,-8228.47,4837.42,-10.1546,64.6059,-22.7905,9537.5,-618.658,503.028,-52.9314,11.296,1.25032
4.7125,3942.47,-1475.15,9617.29,-12.7862,-87.4827,19.4523,13160.0,11072.2,666.369,-190.294,207.704,-98.0125,238.076,11141.3,-1141.42,-0.83222,-0.341744,-86.6777,-7443.14,-19973.9,-7042.19,44.6737,54.1378,-300.122,3299.81,10372.6,-1890.07,4.42213,-23.3922,-54.6001,4721.8,-8337.13,4926.75,-8.25259,65.4892,-21.0755,9527.36,-623.683,502.866,-52.9047,10.9341,1.30528
4.713,3939.68,-1447.47,9622.16,-13.2194,-87.9709,19.5274,13300.6,11030.0,456.292,-193.056,203.653,-96.4938,222.917,11123.1,-1134.17,-0.873449,-0.09195,-87.0641,-7688.66,-19873.1,-7138.25,44.073,53.7619,-297.978,3318.05,10340.9,-1878.52,4.38852,-23.1905,-54.5144,4989.23,-8445.79,5016.07,-6.35059,66.3725,-19.3605,9517.23,-628.709,502.704,-52.878,10.5721,1.36024
4.7135,3936.9,-1419.79,9627.03,-13.6527,-88.4591,19.6026,13441.3,10987.9,246.215,-195.818,199.603,-94.9751,207.758,11104.9,-1126.92,-0.914679,0.157844,-87.4505,-7934.18,-19772.3,-7234.31,43.4722,53.3861,-295.835,3336.28,10309.2,-1866.96,4.35491,-22.9888,-54.4287,5256.65,-8554.45,5105.39,-4.4486,67.2559,-17.6455,9507.09,-633.734,502.542,-52.8513,10.2102,1.4152
4.714,3934.11,-1392.11,9631.9,-14.0859,-88.9473,19.6777,13582.0,10945.7,36.1377,-198.58,195.552,-93.4563,192.599,11086.8,-1119.67,-0.955908,0.407637,-87.8369,-8179.7,-19671.4,-7330.37,42.8715,53.0102,-293.691,3354.52,10277.5,-1855.4,4.3213,-22.7871,-54.343,5524.08,-8663.11,5194.72,-2.54661,68.1392,-15.9305,9496.95,-638.759,502.38,-52.8246,9.84822,1.47016
4.7145,3931.33,-1364.42,9636.77,-14.5191,-89.4355,19.7529,13722.7,10903.5,-173.939,-201.341,191.501,-91.9376,177.44,11068.6,-1112.42,-0.997137,0.657431,-88.2233,-8425.22,-19570.6,-7426.43,42.2707,52.6343,-291.548,3372.76,10245.9,-1843.85,4.2877,-22.5854,-54.2573,5791.51,-8771.78,5284.04,-0.64462,69.0225,-14.2155,9486.81,-643.785,502.218,-52.7979,9.48627,1.52512
